run_id,condition,rt,response,trial_type,trial_index,time_elapsed,internal_node_id,stimulus,trend,stable,num,resp_map,success,timeout,failed_images,failed_audio,failed_video,recorded_at,ip,user_agent,device,browser,browser_version,platform,platform_version
148,1,32537.35500003677,"{""age"":""18"",""sex"":""female"",""hand"":""right""}",survey-text,0,32557,0.0-0.0,"""","""","""","""","""","""","""","""","""","""","2021-05-13 19:11:44",223.182.164.48,"Mozilla/5.0 (Windows NT 10.0; Win64; x64) AppleWebKit/537.36 (KHTML, like Gecko) Chrome/90.0.4430.93 Safari/537.36",WebKit,Chrome,90.0.4430.93,Windows,10.0
148,1,10349.18999997899,enter,html-keyboard-response,1,42909,0.0-1.0,"Hi! Thanks for volunteering for this study. It is part of the project component for the course, CS786A - Computational Cognitive Science, at IIT Kanpur.<br> You will now play a decision-making game lasting for 15-20 minutes. In case of any queries, please write to prathams@iitk.ac.in or call at 9760066853.<br><br>Press any key to continue!",0,0,1,"[3,0,2,1]","""","""","""","""","""","2021-05-13 19:11:44",223.182.164.48,"Mozilla/5.0 (Windows NT 10.0; Win64; x64) AppleWebKit/537.36 (KHTML, like Gecko) Chrome/90.0.4430.93 Safari/537.36",WebKit,Chrome,90.0.4430.93,Windows,10.0
148,1,44898.24500004761,q,html-keyboard-response,2,87808,0.0-2.0,"Imagine you are in a casino, and you go to a room with four slot machines. On pulling a machine, it yeilds a reward. At any point, some machines may be better than the others, but the amount they give varies. Your aim is to maximize your cumulative reward by the end of this experiment. <br>Machines are pulled by pressing 'Q', 'P', 'M' or 'Z' on the keyboard. These keys are arranged in the same way on the keyboard as the slot machines are on the screen.<br>Press any button to see an illustration of the trial screen and the keyboard mapping!","""","""","""","""","""","""","""","""","""","2021-05-13 19:11:44",223.182.164.48,"Mozilla/5.0 (Windows NT 10.0; Win64; x64) AppleWebKit/537.36 (KHTML, like Gecko) Chrome/90.0.4430.93 Safari/537.36",WebKit,Chrome,90.0.4430.93,Windows,10.0
148,1,"""","""",preload,3,101883,0.0-3.0,"""","""","""","""","""",true,false,[],[],[],"2021-05-13 19:11:44",223.182.164.48,"Mozilla/5.0 (Windows NT 10.0; Win64; x64) AppleWebKit/537.36 (KHTML, like Gecko) Chrome/90.0.4430.93 Safari/537.36",WebKit,Chrome,90.0.4430.93,Windows,10.0
148,1,8164.799999911338," ",html-keyboard-response,4,110049,0.0-4.0,"
    <img src = 'img/b1.png' width = 18% height = 32% style = 'position:absolute;top:10%;left:25%'>
    <img src = 'img/b2.png' width = 18% height = 32% style = 'position:absolute;top:10%;right:25%'>
    <img src = 'img/b3.png' width = 18% height = 32% style = 'position:absolute;bottom:10%;left:25%'>
    <img src = 'img/b4.png' width = 18% height = 32% style = 'position:absolute;bottom:10%;right:25%'>
    <div id = 'cum' style = 'position:absolute;top:5%;right:5%;font-size:calc(18px + 6 * ((100vw - 320px) / 680))'>Total</div>
    <div style = 'position:absolute;top:20%;left:30%;color:black;font-size:calc(18px + 6 * ((100vw - 320px) / 680))'>Q</div>
    <div style = 'position:absolute;top:20%;right:35%;color:black;font-size:calc(18px + 6 * ((100vw - 320px) / 680))'>P</div>
    <div style = 'position:absolute;bottom:26%;right:35%;color:black;font-size:calc(18px + 6 * ((100vw - 320px) / 680))'>M</div>
    <div style = 'position:absolute;bottom:26%;left:30%;color:black;font-size:calc(18px + 6 * ((100vw - 320px) / 680))'>Z</div>
    <div style = 'position:absolute;bottom:5%;left:30%'>Press any button to proceed to the experiment!</div>
  ","""","""","""","""","""","""","""","""","""","2021-05-13 19:11:44",223.182.164.48,"Mozilla/5.0 (Windows NT 10.0; Win64; x64) AppleWebKit/537.36 (KHTML, like Gecko) Chrome/90.0.4430.93 Safari/537.36",WebKit,Chrome,90.0.4430.93,Windows,10.0
148,1,null,null,html-keyboard-response,5,111059,0.0-5.0,"<div style=""font-size:60px;"">+</div>","""","""","""","""","""","""","""","""","""","2021-05-13 19:11:44",223.182.164.48,"Mozilla/5.0 (Windows NT 10.0; Win64; x64) AppleWebKit/537.36 (KHTML, like Gecko) Chrome/90.0.4430.93 Safari/537.36",WebKit,Chrome,90.0.4430.93,Windows,10.0
148,1,4601.33999993559,q,html-keyboard-response,6,115661,0.0-6.0,"
    <img id = 'img_b1' width = 18% height = 32% style = 'position:absolute;top:10%;left:25%'>
    <img id = 'img_b2' width = 18% height = 32% style = 'position:absolute;top:10%;right:25%'>
    <img id = 'img_b3' width = 18% height = 32% style = 'position:absolute;bottom:10%;left:25%'>
    <img id = 'img_b4' width = 18% height = 32% style = 'position:absolute;bottom:10%;right:25%'>
    <div id = 'cum' style = 'position:absolute;top:5%;right:5%;font-size:calc(18px + 6 * ((100vw - 320px) / 680))'></div>
  ","""","""","""","""","""","""","""","""","""","2021-05-13 19:11:44",223.182.164.48,"Mozilla/5.0 (Windows NT 10.0; Win64; x64) AppleWebKit/537.36 (KHTML, like Gecko) Chrome/90.0.4430.93 Safari/537.36",WebKit,Chrome,90.0.4430.93,Windows,10.0
148,1,null,null,html-keyboard-response,7,117171,0.0-7.0,"
    <img id = 'img_b1' width = 18% height = 32% style = 'position:absolute;top:10%;left:25%'>
    <img id = 'img_b2' width = 18% height = 32% style = 'position:absolute;top:10%;right:25%'>
    <img id = 'img_b3' width = 18% height = 32% style = 'position:absolute;bottom:10%;left:25%'>
    <img id = 'img_b4' width = 18% height = 32% style = 'position:absolute;bottom:10%;right:25%'>
    <div id = 'band_txt'></div>
    <div id = 'cum' style = 'position:absolute;top:5%;right:5%;font-size:calc(18px + 6 * ((100vw - 320px) / 680))'></div>
  ","""","""","""","""","""","""","""","""","""","2021-05-13 19:11:44",223.182.164.48,"Mozilla/5.0 (Windows NT 10.0; Win64; x64) AppleWebKit/537.36 (KHTML, like Gecko) Chrome/90.0.4430.93 Safari/537.36",WebKit,Chrome,90.0.4430.93,Windows,10.0
148,1,null,null,html-keyboard-response,8,118434,0.0-8.0,"<div style=""font-size:60px;"">+</div>","""","""","""","""","""","""","""","""","""","2021-05-13 19:11:44",223.182.164.48,"Mozilla/5.0 (Windows NT 10.0; Win64; x64) AppleWebKit/537.36 (KHTML, like Gecko) Chrome/90.0.4430.93 Safari/537.36",WebKit,Chrome,90.0.4430.93,Windows,10.0
148,1,1448.3250000048429,p,html-keyboard-response,9,119883,0.0-9.0,"
    <img id = 'img_b1' width = 18% height = 32% style = 'position:absolute;top:10%;left:25%'>
    <img id = 'img_b2' width = 18% height = 32% style = 'position:absolute;top:10%;right:25%'>
    <img id = 'img_b3' width = 18% height = 32% style = 'position:absolute;bottom:10%;left:25%'>
    <img id = 'img_b4' width = 18% height = 32% style = 'position:absolute;bottom:10%;right:25%'>
    <div id = 'cum' style = 'position:absolute;top:5%;right:5%;font-size:calc(18px + 6 * ((100vw - 320px) / 680))'></div>
  ","""","""","""","""","""","""","""","""","""","2021-05-13 19:11:44",223.182.164.48,"Mozilla/5.0 (Windows NT 10.0; Win64; x64) AppleWebKit/537.36 (KHTML, like Gecko) Chrome/90.0.4430.93 Safari/537.36",WebKit,Chrome,90.0.4430.93,Windows,10.0
148,1,null,null,html-keyboard-response,10,121399,0.0-10.0,"
    <img id = 'img_b1' width = 18% height = 32% style = 'position:absolute;top:10%;left:25%'>
    <img id = 'img_b2' width = 18% height = 32% style = 'position:absolute;top:10%;right:25%'>
    <img id = 'img_b3' width = 18% height = 32% style = 'position:absolute;bottom:10%;left:25%'>
    <img id = 'img_b4' width = 18% height = 32% style = 'position:absolute;bottom:10%;right:25%'>
    <div id = 'band_txt'></div>
    <div id = 'cum' style = 'position:absolute;top:5%;right:5%;font-size:calc(18px + 6 * ((100vw - 320px) / 680))'></div>
  ","""","""","""","""","""","""","""","""","""","2021-05-13 19:11:44",223.182.164.48,"Mozilla/5.0 (Windows NT 10.0; Win64; x64) AppleWebKit/537.36 (KHTML, like Gecko) Chrome/90.0.4430.93 Safari/537.36",WebKit,Chrome,90.0.4430.93,Windows,10.0
148,1,null,null,html-keyboard-response,11,123163,0.0-11.0,"<div style=""font-size:60px;"">+</div>","""","""","""","""","""","""","""","""","""","2021-05-13 19:11:44",223.182.164.48,"Mozilla/5.0 (Windows NT 10.0; Win64; x64) AppleWebKit/537.36 (KHTML, like Gecko) Chrome/90.0.4430.93 Safari/537.36",WebKit,Chrome,90.0.4430.93,Windows,10.0
148,1,391.4199999999255,m,html-keyboard-response,12,123555,0.0-12.0,"
    <img id = 'img_b1' width = 18% height = 32% style = 'position:absolute;top:10%;left:25%'>
    <img id = 'img_b2' width = 18% height = 32% style = 'position:absolute;top:10%;right:25%'>
    <img id = 'img_b3' width = 18% height = 32% style = 'position:absolute;bottom:10%;left:25%'>
    <img id = 'img_b4' width = 18% height = 32% style = 'position:absolute;bottom:10%;right:25%'>
    <div id = 'cum' style = 'position:absolute;top:5%;right:5%;font-size:calc(18px + 6 * ((100vw - 320px) / 680))'></div>
  ","""","""","""","""","""","""","""","""","""","2021-05-13 19:11:44",223.182.164.48,"Mozilla/5.0 (Windows NT 10.0; Win64; x64) AppleWebKit/537.36 (KHTML, like Gecko) Chrome/90.0.4430.93 Safari/537.36",WebKit,Chrome,90.0.4430.93,Windows,10.0
148,1,null,null,html-keyboard-response,13,125068,0.0-13.0,"
    <img id = 'img_b1' width = 18% height = 32% style = 'position:absolute;top:10%;left:25%'>
    <img id = 'img_b2' width = 18% height = 32% style = 'position:absolute;top:10%;right:25%'>
    <img id = 'img_b3' width = 18% height = 32% style = 'position:absolute;bottom:10%;left:25%'>
    <img id = 'img_b4' width = 18% height = 32% style = 'position:absolute;bottom:10%;right:25%'>
    <div id = 'band_txt'></div>
    <div id = 'cum' style = 'position:absolute;top:5%;right:5%;font-size:calc(18px + 6 * ((100vw - 320px) / 680))'></div>
  ","""","""","""","""","""","""","""","""","""","2021-05-13 19:11:44",223.182.164.48,"Mozilla/5.0 (Windows NT 10.0; Win64; x64) AppleWebKit/537.36 (KHTML, like Gecko) Chrome/90.0.4430.93 Safari/537.36",WebKit,Chrome,90.0.4430.93,Windows,10.0
148,1,null,null,html-keyboard-response,14,126080,0.0-14.0,"<div style=""font-size:60px;"">+</div>","""","""","""","""","""","""","""","""","""","2021-05-13 19:11:44",223.182.164.48,"Mozilla/5.0 (Windows NT 10.0; Win64; x64) AppleWebKit/537.36 (KHTML, like Gecko) Chrome/90.0.4430.93 Safari/537.36",WebKit,Chrome,90.0.4430.93,Windows,10.0
148,1,389.80000000447035,z,html-keyboard-response,15,126470,0.0-15.0,"
    <img id = 'img_b1' width = 18% height = 32% style = 'position:absolute;top:10%;left:25%'>
    <img id = 'img_b2' width = 18% height = 32% style = 'position:absolute;top:10%;right:25%'>
    <img id = 'img_b3' width = 18% height = 32% style = 'position:absolute;bottom:10%;left:25%'>
    <img id = 'img_b4' width = 18% height = 32% style = 'position:absolute;bottom:10%;right:25%'>
    <div id = 'cum' style = 'position:absolute;top:5%;right:5%;font-size:calc(18px + 6 * ((100vw - 320px) / 680))'></div>
  ","""","""","""","""","""","""","""","""","""","2021-05-13 19:11:44",223.182.164.48,"Mozilla/5.0 (Windows NT 10.0; Win64; x64) AppleWebKit/537.36 (KHTML, like Gecko) Chrome/90.0.4430.93 Safari/537.36",WebKit,Chrome,90.0.4430.93,Windows,10.0
148,1,null,null,html-keyboard-response,16,127985,0.0-16.0,"
    <img id = 'img_b1' width = 18% height = 32% style = 'position:absolute;top:10%;left:25%'>
    <img id = 'img_b2' width = 18% height = 32% style = 'position:absolute;top:10%;right:25%'>
    <img id = 'img_b3' width = 18% height = 32% style = 'position:absolute;bottom:10%;left:25%'>
    <img id = 'img_b4' width = 18% height = 32% style = 'position:absolute;bottom:10%;right:25%'>
    <div id = 'band_txt'></div>
    <div id = 'cum' style = 'position:absolute;top:5%;right:5%;font-size:calc(18px + 6 * ((100vw - 320px) / 680))'></div>
  ","""","""","""","""","""","""","""","""","""","2021-05-13 19:11:44",223.182.164.48,"Mozilla/5.0 (Windows NT 10.0; Win64; x64) AppleWebKit/537.36 (KHTML, like Gecko) Chrome/90.0.4430.93 Safari/537.36",WebKit,Chrome,90.0.4430.93,Windows,10.0
148,1,null,null,html-keyboard-response,17,128744,0.0-17.0,"<div style=""font-size:60px;"">+</div>","""","""","""","""","""","""","""","""","""","2021-05-13 19:11:44",223.182.164.48,"Mozilla/5.0 (Windows NT 10.0; Win64; x64) AppleWebKit/537.36 (KHTML, like Gecko) Chrome/90.0.4430.93 Safari/537.36",WebKit,Chrome,90.0.4430.93,Windows,10.0
148,1,3171.530000050552,z,html-keyboard-response,18,131917,0.0-18.0,"
    <img id = 'img_b1' width = 18% height = 32% style = 'position:absolute;top:10%;left:25%'>
    <img id = 'img_b2' width = 18% height = 32% style = 'position:absolute;top:10%;right:25%'>
    <img id = 'img_b3' width = 18% height = 32% style = 'position:absolute;bottom:10%;left:25%'>
    <img id = 'img_b4' width = 18% height = 32% style = 'position:absolute;bottom:10%;right:25%'>
    <div id = 'cum' style = 'position:absolute;top:5%;right:5%;font-size:calc(18px + 6 * ((100vw - 320px) / 680))'></div>
  ","""","""","""","""","""","""","""","""","""","2021-05-13 19:11:44",223.182.164.48,"Mozilla/5.0 (Windows NT 10.0; Win64; x64) AppleWebKit/537.36 (KHTML, like Gecko) Chrome/90.0.4430.93 Safari/537.36",WebKit,Chrome,90.0.4430.93,Windows,10.0
148,1,null,null,html-keyboard-response,19,133421,0.0-19.0,"
    <img id = 'img_b1' width = 18% height = 32% style = 'position:absolute;top:10%;left:25%'>
    <img id = 'img_b2' width = 18% height = 32% style = 'position:absolute;top:10%;right:25%'>
    <img id = 'img_b3' width = 18% height = 32% style = 'position:absolute;bottom:10%;left:25%'>
    <img id = 'img_b4' width = 18% height = 32% style = 'position:absolute;bottom:10%;right:25%'>
    <div id = 'band_txt'></div>
    <div id = 'cum' style = 'position:absolute;top:5%;right:5%;font-size:calc(18px + 6 * ((100vw - 320px) / 680))'></div>
  ","""","""","""","""","""","""","""","""","""","2021-05-13 19:11:44",223.182.164.48,"Mozilla/5.0 (Windows NT 10.0; Win64; x64) AppleWebKit/537.36 (KHTML, like Gecko) Chrome/90.0.4430.93 Safari/537.36",WebKit,Chrome,90.0.4430.93,Windows,10.0
148,1,null,null,html-keyboard-response,20,134684,0.0-20.0,"<div style=""font-size:60px;"">+</div>","""","""","""","""","""","""","""","""","""","2021-05-13 19:11:44",223.182.164.48,"Mozilla/5.0 (Windows NT 10.0; Win64; x64) AppleWebKit/537.36 (KHTML, like Gecko) Chrome/90.0.4430.93 Safari/537.36",WebKit,Chrome,90.0.4430.93,Windows,10.0
148,1,319.62999992538244,p,html-keyboard-response,21,135005,0.0-21.0,"
    <img id = 'img_b1' width = 18% height = 32% style = 'position:absolute;top:10%;left:25%'>
    <img id = 'img_b2' width = 18% height = 32% style = 'position:absolute;top:10%;right:25%'>
    <img id = 'img_b3' width = 18% height = 32% style = 'position:absolute;bottom:10%;left:25%'>
    <img id = 'img_b4' width = 18% height = 32% style = 'position:absolute;bottom:10%;right:25%'>
    <div id = 'cum' style = 'position:absolute;top:5%;right:5%;font-size:calc(18px + 6 * ((100vw - 320px) / 680))'></div>
  ","""","""","""","""","""","""","""","""","""","2021-05-13 19:11:44",223.182.164.48,"Mozilla/5.0 (Windows NT 10.0; Win64; x64) AppleWebKit/537.36 (KHTML, like Gecko) Chrome/90.0.4430.93 Safari/537.36",WebKit,Chrome,90.0.4430.93,Windows,10.0
148,1,null,null,html-keyboard-response,22,136515,0.0-22.0,"
    <img id = 'img_b1' width = 18% height = 32% style = 'position:absolute;top:10%;left:25%'>
    <img id = 'img_b2' width = 18% height = 32% style = 'position:absolute;top:10%;right:25%'>
    <img id = 'img_b3' width = 18% height = 32% style = 'position:absolute;bottom:10%;left:25%'>
    <img id = 'img_b4' width = 18% height = 32% style = 'position:absolute;bottom:10%;right:25%'>
    <div id = 'band_txt'></div>
    <div id = 'cum' style = 'position:absolute;top:5%;right:5%;font-size:calc(18px + 6 * ((100vw - 320px) / 680))'></div>
  ","""","""","""","""","""","""","""","""","""","2021-05-13 19:11:44",223.182.164.48,"Mozilla/5.0 (Windows NT 10.0; Win64; x64) AppleWebKit/537.36 (KHTML, like Gecko) Chrome/90.0.4430.93 Safari/537.36",WebKit,Chrome,90.0.4430.93,Windows,10.0
148,1,null,null,html-keyboard-response,23,137522,0.0-23.0,"<div style=""font-size:60px;"">+</div>","""","""","""","""","""","""","""","""","""","2021-05-13 19:11:44",223.182.164.48,"Mozilla/5.0 (Windows NT 10.0; Win64; x64) AppleWebKit/537.36 (KHTML, like Gecko) Chrome/90.0.4430.93 Safari/537.36",WebKit,Chrome,90.0.4430.93,Windows,10.0
148,1,831.7950000055134,p,html-keyboard-response,24,138355,0.0-24.0,"
    <img id = 'img_b1' width = 18% height = 32% style = 'position:absolute;top:10%;left:25%'>
    <img id = 'img_b2' width = 18% height = 32% style = 'position:absolute;top:10%;right:25%'>
    <img id = 'img_b3' width = 18% height = 32% style = 'position:absolute;bottom:10%;left:25%'>
    <img id = 'img_b4' width = 18% height = 32% style = 'position:absolute;bottom:10%;right:25%'>
    <div id = 'cum' style = 'position:absolute;top:5%;right:5%;font-size:calc(18px + 6 * ((100vw - 320px) / 680))'></div>
  ","""","""","""","""","""","""","""","""","""","2021-05-13 19:11:44",223.182.164.48,"Mozilla/5.0 (Windows NT 10.0; Win64; x64) AppleWebKit/537.36 (KHTML, like Gecko) Chrome/90.0.4430.93 Safari/537.36",WebKit,Chrome,90.0.4430.93,Windows,10.0
148,1,null,null,html-keyboard-response,25,139865,0.0-25.0,"
    <img id = 'img_b1' width = 18% height = 32% style = 'position:absolute;top:10%;left:25%'>
    <img id = 'img_b2' width = 18% height = 32% style = 'position:absolute;top:10%;right:25%'>
    <img id = 'img_b3' width = 18% height = 32% style = 'position:absolute;bottom:10%;left:25%'>
    <img id = 'img_b4' width = 18% height = 32% style = 'position:absolute;bottom:10%;right:25%'>
    <div id = 'band_txt'></div>
    <div id = 'cum' style = 'position:absolute;top:5%;right:5%;font-size:calc(18px + 6 * ((100vw - 320px) / 680))'></div>
  ","""","""","""","""","""","""","""","""","""","2021-05-13 19:11:44",223.182.164.48,"Mozilla/5.0 (Windows NT 10.0; Win64; x64) AppleWebKit/537.36 (KHTML, like Gecko) Chrome/90.0.4430.93 Safari/537.36",WebKit,Chrome,90.0.4430.93,Windows,10.0
148,1,null,null,html-keyboard-response,26,141130,0.0-26.0,"<div style=""font-size:60px;"">+</div>","""","""","""","""","""","""","""","""","""","2021-05-13 19:11:44",223.182.164.48,"Mozilla/5.0 (Windows NT 10.0; Win64; x64) AppleWebKit/537.36 (KHTML, like Gecko) Chrome/90.0.4430.93 Safari/537.36",WebKit,Chrome,90.0.4430.93,Windows,10.0
148,1,633.1650000065565,m,html-keyboard-response,27,141764,0.0-27.0,"
    <img id = 'img_b1' width = 18% height = 32% style = 'position:absolute;top:10%;left:25%'>
    <img id = 'img_b2' width = 18% height = 32% style = 'position:absolute;top:10%;right:25%'>
    <img id = 'img_b3' width = 18% height = 32% style = 'position:absolute;bottom:10%;left:25%'>
    <img id = 'img_b4' width = 18% height = 32% style = 'position:absolute;bottom:10%;right:25%'>
    <div id = 'cum' style = 'position:absolute;top:5%;right:5%;font-size:calc(18px + 6 * ((100vw - 320px) / 680))'></div>
  ","""","""","""","""","""","""","""","""","""","2021-05-13 19:11:44",223.182.164.48,"Mozilla/5.0 (Windows NT 10.0; Win64; x64) AppleWebKit/537.36 (KHTML, like Gecko) Chrome/90.0.4430.93 Safari/537.36",WebKit,Chrome,90.0.4430.93,Windows,10.0
148,1,null,null,html-keyboard-response,28,143280,0.0-28.0,"
    <img id = 'img_b1' width = 18% height = 32% style = 'position:absolute;top:10%;left:25%'>
    <img id = 'img_b2' width = 18% height = 32% style = 'position:absolute;top:10%;right:25%'>
    <img id = 'img_b3' width = 18% height = 32% style = 'position:absolute;bottom:10%;left:25%'>
    <img id = 'img_b4' width = 18% height = 32% style = 'position:absolute;bottom:10%;right:25%'>
    <div id = 'band_txt'></div>
    <div id = 'cum' style = 'position:absolute;top:5%;right:5%;font-size:calc(18px + 6 * ((100vw - 320px) / 680))'></div>
  ","""","""","""","""","""","""","""","""","""","2021-05-13 19:11:44",223.182.164.48,"Mozilla/5.0 (Windows NT 10.0; Win64; x64) AppleWebKit/537.36 (KHTML, like Gecko) Chrome/90.0.4430.93 Safari/537.36",WebKit,Chrome,90.0.4430.93,Windows,10.0
148,1,null,null,html-keyboard-response,29,144545,0.0-29.0,"<div style=""font-size:60px;"">+</div>","""","""","""","""","""","""","""","""","""","2021-05-13 19:11:44",223.182.164.48,"Mozilla/5.0 (Windows NT 10.0; Win64; x64) AppleWebKit/537.36 (KHTML, like Gecko) Chrome/90.0.4430.93 Safari/537.36",WebKit,Chrome,90.0.4430.93,Windows,10.0
148,1,323.1849999865517,p,html-keyboard-response,30,144869,0.0-30.0,"
    <img id = 'img_b1' width = 18% height = 32% style = 'position:absolute;top:10%;left:25%'>
    <img id = 'img_b2' width = 18% height = 32% style = 'position:absolute;top:10%;right:25%'>
    <img id = 'img_b3' width = 18% height = 32% style = 'position:absolute;bottom:10%;left:25%'>
    <img id = 'img_b4' width = 18% height = 32% style = 'position:absolute;bottom:10%;right:25%'>
    <div id = 'cum' style = 'position:absolute;top:5%;right:5%;font-size:calc(18px + 6 * ((100vw - 320px) / 680))'></div>
  ","""","""","""","""","""","""","""","""","""","2021-05-13 19:11:44",223.182.164.48,"Mozilla/5.0 (Windows NT 10.0; Win64; x64) AppleWebKit/537.36 (KHTML, like Gecko) Chrome/90.0.4430.93 Safari/537.36",WebKit,Chrome,90.0.4430.93,Windows,10.0
148,1,null,null,html-keyboard-response,31,146377,0.0-31.0,"
    <img id = 'img_b1' width = 18% height = 32% style = 'position:absolute;top:10%;left:25%'>
    <img id = 'img_b2' width = 18% height = 32% style = 'position:absolute;top:10%;right:25%'>
    <img id = 'img_b3' width = 18% height = 32% style = 'position:absolute;bottom:10%;left:25%'>
    <img id = 'img_b4' width = 18% height = 32% style = 'position:absolute;bottom:10%;right:25%'>
    <div id = 'band_txt'></div>
    <div id = 'cum' style = 'position:absolute;top:5%;right:5%;font-size:calc(18px + 6 * ((100vw - 320px) / 680))'></div>
  ","""","""","""","""","""","""","""","""","""","2021-05-13 19:11:44",223.182.164.48,"Mozilla/5.0 (Windows NT 10.0; Win64; x64) AppleWebKit/537.36 (KHTML, like Gecko) Chrome/90.0.4430.93 Safari/537.36",WebKit,Chrome,90.0.4430.93,Windows,10.0
148,1,null,null,html-keyboard-response,32,147640,0.0-32.0,"<div style=""font-size:60px;"">+</div>","""","""","""","""","""","""","""","""","""","2021-05-13 19:11:44",223.182.164.48,"Mozilla/5.0 (Windows NT 10.0; Win64; x64) AppleWebKit/537.36 (KHTML, like Gecko) Chrome/90.0.4430.93 Safari/537.36",WebKit,Chrome,90.0.4430.93,Windows,10.0
148,1,1683.7600000435486,z,html-keyboard-response,33,149324,0.0-33.0,"
    <img id = 'img_b1' width = 18% height = 32% style = 'position:absolute;top:10%;left:25%'>
    <img id = 'img_b2' width = 18% height = 32% style = 'position:absolute;top:10%;right:25%'>
    <img id = 'img_b3' width = 18% height = 32% style = 'position:absolute;bottom:10%;left:25%'>
    <img id = 'img_b4' width = 18% height = 32% style = 'position:absolute;bottom:10%;right:25%'>
    <div id = 'cum' style = 'position:absolute;top:5%;right:5%;font-size:calc(18px + 6 * ((100vw - 320px) / 680))'></div>
  ","""","""","""","""","""","""","""","""","""","2021-05-13 19:11:44",223.182.164.48,"Mozilla/5.0 (Windows NT 10.0; Win64; x64) AppleWebKit/537.36 (KHTML, like Gecko) Chrome/90.0.4430.93 Safari/537.36",WebKit,Chrome,90.0.4430.93,Windows,10.0
148,1,null,null,html-keyboard-response,34,150840,0.0-34.0,"
    <img id = 'img_b1' width = 18% height = 32% style = 'position:absolute;top:10%;left:25%'>
    <img id = 'img_b2' width = 18% height = 32% style = 'position:absolute;top:10%;right:25%'>
    <img id = 'img_b3' width = 18% height = 32% style = 'position:absolute;bottom:10%;left:25%'>
    <img id = 'img_b4' width = 18% height = 32% style = 'position:absolute;bottom:10%;right:25%'>
    <div id = 'band_txt'></div>
    <div id = 'cum' style = 'position:absolute;top:5%;right:5%;font-size:calc(18px + 6 * ((100vw - 320px) / 680))'></div>
  ","""","""","""","""","""","""","""","""","""","2021-05-13 19:11:44",223.182.164.48,"Mozilla/5.0 (Windows NT 10.0; Win64; x64) AppleWebKit/537.36 (KHTML, like Gecko) Chrome/90.0.4430.93 Safari/537.36",WebKit,Chrome,90.0.4430.93,Windows,10.0
148,1,null,null,html-keyboard-response,35,151597,0.0-35.0,"<div style=""font-size:60px;"">+</div>","""","""","""","""","""","""","""","""","""","2021-05-13 19:11:44",223.182.164.48,"Mozilla/5.0 (Windows NT 10.0; Win64; x64) AppleWebKit/537.36 (KHTML, like Gecko) Chrome/90.0.4430.93 Safari/537.36",WebKit,Chrome,90.0.4430.93,Windows,10.0
148,1,370.4450000077486,z,html-keyboard-response,36,151970,0.0-36.0,"
    <img id = 'img_b1' width = 18% height = 32% style = 'position:absolute;top:10%;left:25%'>
    <img id = 'img_b2' width = 18% height = 32% style = 'position:absolute;top:10%;right:25%'>
    <img id = 'img_b3' width = 18% height = 32% style = 'position:absolute;bottom:10%;left:25%'>
    <img id = 'img_b4' width = 18% height = 32% style = 'position:absolute;bottom:10%;right:25%'>
    <div id = 'cum' style = 'position:absolute;top:5%;right:5%;font-size:calc(18px + 6 * ((100vw - 320px) / 680))'></div>
  ","""","""","""","""","""","""","""","""","""","2021-05-13 19:11:44",223.182.164.48,"Mozilla/5.0 (Windows NT 10.0; Win64; x64) AppleWebKit/537.36 (KHTML, like Gecko) Chrome/90.0.4430.93 Safari/537.36",WebKit,Chrome,90.0.4430.93,Windows,10.0
148,1,null,null,html-keyboard-response,37,153480,0.0-37.0,"
    <img id = 'img_b1' width = 18% height = 32% style = 'position:absolute;top:10%;left:25%'>
    <img id = 'img_b2' width = 18% height = 32% style = 'position:absolute;top:10%;right:25%'>
    <img id = 'img_b3' width = 18% height = 32% style = 'position:absolute;bottom:10%;left:25%'>
    <img id = 'img_b4' width = 18% height = 32% style = 'position:absolute;bottom:10%;right:25%'>
    <div id = 'band_txt'></div>
    <div id = 'cum' style = 'position:absolute;top:5%;right:5%;font-size:calc(18px + 6 * ((100vw - 320px) / 680))'></div>
  ","""","""","""","""","""","""","""","""","""","2021-05-13 19:11:44",223.182.164.48,"Mozilla/5.0 (Windows NT 10.0; Win64; x64) AppleWebKit/537.36 (KHTML, like Gecko) Chrome/90.0.4430.93 Safari/537.36",WebKit,Chrome,90.0.4430.93,Windows,10.0
148,1,null,null,html-keyboard-response,38,155234,0.0-38.0,"<div style=""font-size:60px;"">+</div>","""","""","""","""","""","""","""","""","""","2021-05-13 19:11:44",223.182.164.48,"Mozilla/5.0 (Windows NT 10.0; Win64; x64) AppleWebKit/537.36 (KHTML, like Gecko) Chrome/90.0.4430.93 Safari/537.36",WebKit,Chrome,90.0.4430.93,Windows,10.0
148,1,307.850000099279,q,html-keyboard-response,39,155542,0.0-39.0,"
    <img id = 'img_b1' width = 18% height = 32% style = 'position:absolute;top:10%;left:25%'>
    <img id = 'img_b2' width = 18% height = 32% style = 'position:absolute;top:10%;right:25%'>
    <img id = 'img_b3' width = 18% height = 32% style = 'position:absolute;bottom:10%;left:25%'>
    <img id = 'img_b4' width = 18% height = 32% style = 'position:absolute;bottom:10%;right:25%'>
    <div id = 'cum' style = 'position:absolute;top:5%;right:5%;font-size:calc(18px + 6 * ((100vw - 320px) / 680))'></div>
  ","""","""","""","""","""","""","""","""","""","2021-05-13 19:11:44",223.182.164.48,"Mozilla/5.0 (Windows NT 10.0; Win64; x64) AppleWebKit/537.36 (KHTML, like Gecko) Chrome/90.0.4430.93 Safari/537.36",WebKit,Chrome,90.0.4430.93,Windows,10.0
148,1,null,null,html-keyboard-response,40,157052,0.0-40.0,"
    <img id = 'img_b1' width = 18% height = 32% style = 'position:absolute;top:10%;left:25%'>
    <img id = 'img_b2' width = 18% height = 32% style = 'position:absolute;top:10%;right:25%'>
    <img id = 'img_b3' width = 18% height = 32% style = 'position:absolute;bottom:10%;left:25%'>
    <img id = 'img_b4' width = 18% height = 32% style = 'position:absolute;bottom:10%;right:25%'>
    <div id = 'band_txt'></div>
    <div id = 'cum' style = 'position:absolute;top:5%;right:5%;font-size:calc(18px + 6 * ((100vw - 320px) / 680))'></div>
  ","""","""","""","""","""","""","""","""","""","2021-05-13 19:11:44",223.182.164.48,"Mozilla/5.0 (Windows NT 10.0; Win64; x64) AppleWebKit/537.36 (KHTML, like Gecko) Chrome/90.0.4430.93 Safari/537.36",WebKit,Chrome,90.0.4430.93,Windows,10.0
148,1,null,null,html-keyboard-response,41,158568,0.0-41.0,"<div style=""font-size:60px;"">+</div>","""","""","""","""","""","""","""","""","""","2021-05-13 19:11:44",223.182.164.48,"Mozilla/5.0 (Windows NT 10.0; Win64; x64) AppleWebKit/537.36 (KHTML, like Gecko) Chrome/90.0.4430.93 Safari/537.36",WebKit,Chrome,90.0.4430.93,Windows,10.0
148,1,417.43499995209277,p,html-keyboard-response,42,158986,0.0-42.0,"
    <img id = 'img_b1' width = 18% height = 32% style = 'position:absolute;top:10%;left:25%'>
    <img id = 'img_b2' width = 18% height = 32% style = 'position:absolute;top:10%;right:25%'>
    <img id = 'img_b3' width = 18% height = 32% style = 'position:absolute;bottom:10%;left:25%'>
    <img id = 'img_b4' width = 18% height = 32% style = 'position:absolute;bottom:10%;right:25%'>
    <div id = 'cum' style = 'position:absolute;top:5%;right:5%;font-size:calc(18px + 6 * ((100vw - 320px) / 680))'></div>
  ","""","""","""","""","""","""","""","""","""","2021-05-13 19:11:44",223.182.164.48,"Mozilla/5.0 (Windows NT 10.0; Win64; x64) AppleWebKit/537.36 (KHTML, like Gecko) Chrome/90.0.4430.93 Safari/537.36",WebKit,Chrome,90.0.4430.93,Windows,10.0
148,1,null,null,html-keyboard-response,43,160489,0.0-43.0,"
    <img id = 'img_b1' width = 18% height = 32% style = 'position:absolute;top:10%;left:25%'>
    <img id = 'img_b2' width = 18% height = 32% style = 'position:absolute;top:10%;right:25%'>
    <img id = 'img_b3' width = 18% height = 32% style = 'position:absolute;bottom:10%;left:25%'>
    <img id = 'img_b4' width = 18% height = 32% style = 'position:absolute;bottom:10%;right:25%'>
    <div id = 'band_txt'></div>
    <div id = 'cum' style = 'position:absolute;top:5%;right:5%;font-size:calc(18px + 6 * ((100vw - 320px) / 680))'></div>
  ","""","""","""","""","""","""","""","""","""","2021-05-13 19:11:44",223.182.164.48,"Mozilla/5.0 (Windows NT 10.0; Win64; x64) AppleWebKit/537.36 (KHTML, like Gecko) Chrome/90.0.4430.93 Safari/537.36",WebKit,Chrome,90.0.4430.93,Windows,10.0
148,1,null,null,html-keyboard-response,44,162256,0.0-44.0,"<div style=""font-size:60px;"">+</div>","""","""","""","""","""","""","""","""","""","2021-05-13 19:11:44",223.182.164.48,"Mozilla/5.0 (Windows NT 10.0; Win64; x64) AppleWebKit/537.36 (KHTML, like Gecko) Chrome/90.0.4430.93 Safari/537.36",WebKit,Chrome,90.0.4430.93,Windows,10.0
148,1,1204.8150000628084,p,html-keyboard-response,45,163461,0.0-45.0,"
    <img id = 'img_b1' width = 18% height = 32% style = 'position:absolute;top:10%;left:25%'>
    <img id = 'img_b2' width = 18% height = 32% style = 'position:absolute;top:10%;right:25%'>
    <img id = 'img_b3' width = 18% height = 32% style = 'position:absolute;bottom:10%;left:25%'>
    <img id = 'img_b4' width = 18% height = 32% style = 'position:absolute;bottom:10%;right:25%'>
    <div id = 'cum' style = 'position:absolute;top:5%;right:5%;font-size:calc(18px + 6 * ((100vw - 320px) / 680))'></div>
  ","""","""","""","""","""","""","""","""","""","2021-05-13 19:11:44",223.182.164.48,"Mozilla/5.0 (Windows NT 10.0; Win64; x64) AppleWebKit/537.36 (KHTML, like Gecko) Chrome/90.0.4430.93 Safari/537.36",WebKit,Chrome,90.0.4430.93,Windows,10.0
148,1,null,null,html-keyboard-response,46,164973,0.0-46.0,"
    <img id = 'img_b1' width = 18% height = 32% style = 'position:absolute;top:10%;left:25%'>
    <img id = 'img_b2' width = 18% height = 32% style = 'position:absolute;top:10%;right:25%'>
    <img id = 'img_b3' width = 18% height = 32% style = 'position:absolute;bottom:10%;left:25%'>
    <img id = 'img_b4' width = 18% height = 32% style = 'position:absolute;bottom:10%;right:25%'>
    <div id = 'band_txt'></div>
    <div id = 'cum' style = 'position:absolute;top:5%;right:5%;font-size:calc(18px + 6 * ((100vw - 320px) / 680))'></div>
  ","""","""","""","""","""","""","""","""","""","2021-05-13 19:11:44",223.182.164.48,"Mozilla/5.0 (Windows NT 10.0; Win64; x64) AppleWebKit/537.36 (KHTML, like Gecko) Chrome/90.0.4430.93 Safari/537.36",WebKit,Chrome,90.0.4430.93,Windows,10.0
148,1,null,null,html-keyboard-response,47,166485,0.0-47.0,"<div style=""font-size:60px;"">+</div>","""","""","""","""","""","""","""","""","""","2021-05-13 19:11:44",223.182.164.48,"Mozilla/5.0 (Windows NT 10.0; Win64; x64) AppleWebKit/537.36 (KHTML, like Gecko) Chrome/90.0.4430.93 Safari/537.36",WebKit,Chrome,90.0.4430.93,Windows,10.0
148,1,730.5899999337271,m,html-keyboard-response,48,167216,0.0-48.0,"
    <img id = 'img_b1' width = 18% height = 32% style = 'position:absolute;top:10%;left:25%'>
    <img id = 'img_b2' width = 18% height = 32% style = 'position:absolute;top:10%;right:25%'>
    <img id = 'img_b3' width = 18% height = 32% style = 'position:absolute;bottom:10%;left:25%'>
    <img id = 'img_b4' width = 18% height = 32% style = 'position:absolute;bottom:10%;right:25%'>
    <div id = 'cum' style = 'position:absolute;top:5%;right:5%;font-size:calc(18px + 6 * ((100vw - 320px) / 680))'></div>
  ","""","""","""","""","""","""","""","""","""","2021-05-13 19:11:44",223.182.164.48,"Mozilla/5.0 (Windows NT 10.0; Win64; x64) AppleWebKit/537.36 (KHTML, like Gecko) Chrome/90.0.4430.93 Safari/537.36",WebKit,Chrome,90.0.4430.93,Windows,10.0
148,1,null,null,html-keyboard-response,49,168725,0.0-49.0,"
    <img id = 'img_b1' width = 18% height = 32% style = 'position:absolute;top:10%;left:25%'>
    <img id = 'img_b2' width = 18% height = 32% style = 'position:absolute;top:10%;right:25%'>
    <img id = 'img_b3' width = 18% height = 32% style = 'position:absolute;bottom:10%;left:25%'>
    <img id = 'img_b4' width = 18% height = 32% style = 'position:absolute;bottom:10%;right:25%'>
    <div id = 'band_txt'></div>
    <div id = 'cum' style = 'position:absolute;top:5%;right:5%;font-size:calc(18px + 6 * ((100vw - 320px) / 680))'></div>
  ","""","""","""","""","""","""","""","""","""","2021-05-13 19:11:44",223.182.164.48,"Mozilla/5.0 (Windows NT 10.0; Win64; x64) AppleWebKit/537.36 (KHTML, like Gecko) Chrome/90.0.4430.93 Safari/537.36",WebKit,Chrome,90.0.4430.93,Windows,10.0
148,1,null,null,html-keyboard-response,50,169986,0.0-50.0,"<div style=""font-size:60px;"">+</div>","""","""","""","""","""","""","""","""","""","2021-05-13 19:11:44",223.182.164.48,"Mozilla/5.0 (Windows NT 10.0; Win64; x64) AppleWebKit/537.36 (KHTML, like Gecko) Chrome/90.0.4430.93 Safari/537.36",WebKit,Chrome,90.0.4430.93,Windows,10.0
148,1,1533.0700000049546,m,html-keyboard-response,51,171520,0.0-51.0,"
    <img id = 'img_b1' width = 18% height = 32% style = 'position:absolute;top:10%;left:25%'>
    <img id = 'img_b2' width = 18% height = 32% style = 'position:absolute;top:10%;right:25%'>
    <img id = 'img_b3' width = 18% height = 32% style = 'position:absolute;bottom:10%;left:25%'>
    <img id = 'img_b4' width = 18% height = 32% style = 'position:absolute;bottom:10%;right:25%'>
    <div id = 'cum' style = 'position:absolute;top:5%;right:5%;font-size:calc(18px + 6 * ((100vw - 320px) / 680))'></div>
  ","""","""","""","""","""","""","""","""","""","2021-05-13 19:11:44",223.182.164.48,"Mozilla/5.0 (Windows NT 10.0; Win64; x64) AppleWebKit/537.36 (KHTML, like Gecko) Chrome/90.0.4430.93 Safari/537.36",WebKit,Chrome,90.0.4430.93,Windows,10.0
148,1,null,null,html-keyboard-response,52,173031,0.0-52.0,"
    <img id = 'img_b1' width = 18% height = 32% style = 'position:absolute;top:10%;left:25%'>
    <img id = 'img_b2' width = 18% height = 32% style = 'position:absolute;top:10%;right:25%'>
    <img id = 'img_b3' width = 18% height = 32% style = 'position:absolute;bottom:10%;left:25%'>
    <img id = 'img_b4' width = 18% height = 32% style = 'position:absolute;bottom:10%;right:25%'>
    <div id = 'band_txt'></div>
    <div id = 'cum' style = 'position:absolute;top:5%;right:5%;font-size:calc(18px + 6 * ((100vw - 320px) / 680))'></div>
  ","""","""","""","""","""","""","""","""","""","2021-05-13 19:11:44",223.182.164.48,"Mozilla/5.0 (Windows NT 10.0; Win64; x64) AppleWebKit/537.36 (KHTML, like Gecko) Chrome/90.0.4430.93 Safari/537.36",WebKit,Chrome,90.0.4430.93,Windows,10.0
148,1,null,null,html-keyboard-response,53,174791,0.0-53.0,"<div style=""font-size:60px;"">+</div>","""","""","""","""","""","""","""","""","""","2021-05-13 19:11:44",223.182.164.48,"Mozilla/5.0 (Windows NT 10.0; Win64; x64) AppleWebKit/537.36 (KHTML, like Gecko) Chrome/90.0.4430.93 Safari/537.36",WebKit,Chrome,90.0.4430.93,Windows,10.0
148,1,786.9600000558421,p,html-keyboard-response,54,175578,0.0-54.0,"
    <img id = 'img_b1' width = 18% height = 32% style = 'position:absolute;top:10%;left:25%'>
    <img id = 'img_b2' width = 18% height = 32% style = 'position:absolute;top:10%;right:25%'>
    <img id = 'img_b3' width = 18% height = 32% style = 'position:absolute;bottom:10%;left:25%'>
    <img id = 'img_b4' width = 18% height = 32% style = 'position:absolute;bottom:10%;right:25%'>
    <div id = 'cum' style = 'position:absolute;top:5%;right:5%;font-size:calc(18px + 6 * ((100vw - 320px) / 680))'></div>
  ","""","""","""","""","""","""","""","""","""","2021-05-13 19:11:44",223.182.164.48,"Mozilla/5.0 (Windows NT 10.0; Win64; x64) AppleWebKit/537.36 (KHTML, like Gecko) Chrome/90.0.4430.93 Safari/537.36",WebKit,Chrome,90.0.4430.93,Windows,10.0
148,1,null,null,html-keyboard-response,55,177094,0.0-55.0,"
    <img id = 'img_b1' width = 18% height = 32% style = 'position:absolute;top:10%;left:25%'>
    <img id = 'img_b2' width = 18% height = 32% style = 'position:absolute;top:10%;right:25%'>
    <img id = 'img_b3' width = 18% height = 32% style = 'position:absolute;bottom:10%;left:25%'>
    <img id = 'img_b4' width = 18% height = 32% style = 'position:absolute;bottom:10%;right:25%'>
    <div id = 'band_txt'></div>
    <div id = 'cum' style = 'position:absolute;top:5%;right:5%;font-size:calc(18px + 6 * ((100vw - 320px) / 680))'></div>
  ","""","""","""","""","""","""","""","""","""","2021-05-13 19:11:44",223.182.164.48,"Mozilla/5.0 (Windows NT 10.0; Win64; x64) AppleWebKit/537.36 (KHTML, like Gecko) Chrome/90.0.4430.93 Safari/537.36",WebKit,Chrome,90.0.4430.93,Windows,10.0
148,1,null,null,html-keyboard-response,56,178110,0.0-56.0,"<div style=""font-size:60px;"">+</div>","""","""","""","""","""","""","""","""","""","2021-05-13 19:11:44",223.182.164.48,"Mozilla/5.0 (Windows NT 10.0; Win64; x64) AppleWebKit/537.36 (KHTML, like Gecko) Chrome/90.0.4430.93 Safari/537.36",WebKit,Chrome,90.0.4430.93,Windows,10.0
148,1,2422.9099999647588,p,html-keyboard-response,57,180533,0.0-57.0,"
    <img id = 'img_b1' width = 18% height = 32% style = 'position:absolute;top:10%;left:25%'>
    <img id = 'img_b2' width = 18% height = 32% style = 'position:absolute;top:10%;right:25%'>
    <img id = 'img_b3' width = 18% height = 32% style = 'position:absolute;bottom:10%;left:25%'>
    <img id = 'img_b4' width = 18% height = 32% style = 'position:absolute;bottom:10%;right:25%'>
    <div id = 'cum' style = 'position:absolute;top:5%;right:5%;font-size:calc(18px + 6 * ((100vw - 320px) / 680))'></div>
  ","""","""","""","""","""","""","""","""","""","2021-05-13 19:11:44",223.182.164.48,"Mozilla/5.0 (Windows NT 10.0; Win64; x64) AppleWebKit/537.36 (KHTML, like Gecko) Chrome/90.0.4430.93 Safari/537.36",WebKit,Chrome,90.0.4430.93,Windows,10.0
148,1,null,null,html-keyboard-response,58,182050,0.0-58.0,"
    <img id = 'img_b1' width = 18% height = 32% style = 'position:absolute;top:10%;left:25%'>
    <img id = 'img_b2' width = 18% height = 32% style = 'position:absolute;top:10%;right:25%'>
    <img id = 'img_b3' width = 18% height = 32% style = 'position:absolute;bottom:10%;left:25%'>
    <img id = 'img_b4' width = 18% height = 32% style = 'position:absolute;bottom:10%;right:25%'>
    <div id = 'band_txt'></div>
    <div id = 'cum' style = 'position:absolute;top:5%;right:5%;font-size:calc(18px + 6 * ((100vw - 320px) / 680))'></div>
  ","""","""","""","""","""","""","""","""","""","2021-05-13 19:11:44",223.182.164.48,"Mozilla/5.0 (Windows NT 10.0; Win64; x64) AppleWebKit/537.36 (KHTML, like Gecko) Chrome/90.0.4430.93 Safari/537.36",WebKit,Chrome,90.0.4430.93,Windows,10.0
148,1,null,null,html-keyboard-response,59,183814,0.0-59.0,"<div style=""font-size:60px;"">+</div>","""","""","""","""","""","""","""","""","""","2021-05-13 19:11:44",223.182.164.48,"Mozilla/5.0 (Windows NT 10.0; Win64; x64) AppleWebKit/537.36 (KHTML, like Gecko) Chrome/90.0.4430.93 Safari/537.36",WebKit,Chrome,90.0.4430.93,Windows,10.0
148,1,1431.029999977909,p,html-keyboard-response,60,185245,0.0-60.0,"
    <img id = 'img_b1' width = 18% height = 32% style = 'position:absolute;top:10%;left:25%'>
    <img id = 'img_b2' width = 18% height = 32% style = 'position:absolute;top:10%;right:25%'>
    <img id = 'img_b3' width = 18% height = 32% style = 'position:absolute;bottom:10%;left:25%'>
    <img id = 'img_b4' width = 18% height = 32% style = 'position:absolute;bottom:10%;right:25%'>
    <div id = 'cum' style = 'position:absolute;top:5%;right:5%;font-size:calc(18px + 6 * ((100vw - 320px) / 680))'></div>
  ","""","""","""","""","""","""","""","""","""","2021-05-13 19:11:44",223.182.164.48,"Mozilla/5.0 (Windows NT 10.0; Win64; x64) AppleWebKit/537.36 (KHTML, like Gecko) Chrome/90.0.4430.93 Safari/537.36",WebKit,Chrome,90.0.4430.93,Windows,10.0
148,1,null,null,html-keyboard-response,61,186764,0.0-61.0,"
    <img id = 'img_b1' width = 18% height = 32% style = 'position:absolute;top:10%;left:25%'>
    <img id = 'img_b2' width = 18% height = 32% style = 'position:absolute;top:10%;right:25%'>
    <img id = 'img_b3' width = 18% height = 32% style = 'position:absolute;bottom:10%;left:25%'>
    <img id = 'img_b4' width = 18% height = 32% style = 'position:absolute;bottom:10%;right:25%'>
    <div id = 'band_txt'></div>
    <div id = 'cum' style = 'position:absolute;top:5%;right:5%;font-size:calc(18px + 6 * ((100vw - 320px) / 680))'></div>
  ","""","""","""","""","""","""","""","""","""","2021-05-13 19:11:44",223.182.164.48,"Mozilla/5.0 (Windows NT 10.0; Win64; x64) AppleWebKit/537.36 (KHTML, like Gecko) Chrome/90.0.4430.93 Safari/537.36",WebKit,Chrome,90.0.4430.93,Windows,10.0
148,1,null,null,html-keyboard-response,62,187521,0.0-62.0,"<div style=""font-size:60px;"">+</div>","""","""","""","""","""","""","""","""","""","2021-05-13 19:11:44",223.182.164.48,"Mozilla/5.0 (Windows NT 10.0; Win64; x64) AppleWebKit/537.36 (KHTML, like Gecko) Chrome/90.0.4430.93 Safari/537.36",WebKit,Chrome,90.0.4430.93,Windows,10.0
148,1,1195.475000073202,p,html-keyboard-response,63,188717,0.0-63.0,"
    <img id = 'img_b1' width = 18% height = 32% style = 'position:absolute;top:10%;left:25%'>
    <img id = 'img_b2' width = 18% height = 32% style = 'position:absolute;top:10%;right:25%'>
    <img id = 'img_b3' width = 18% height = 32% style = 'position:absolute;bottom:10%;left:25%'>
    <img id = 'img_b4' width = 18% height = 32% style = 'position:absolute;bottom:10%;right:25%'>
    <div id = 'cum' style = 'position:absolute;top:5%;right:5%;font-size:calc(18px + 6 * ((100vw - 320px) / 680))'></div>
  ","""","""","""","""","""","""","""","""","""","2021-05-13 19:11:44",223.182.164.48,"Mozilla/5.0 (Windows NT 10.0; Win64; x64) AppleWebKit/537.36 (KHTML, like Gecko) Chrome/90.0.4430.93 Safari/537.36",WebKit,Chrome,90.0.4430.93,Windows,10.0
148,1,null,null,html-keyboard-response,64,190226,0.0-64.0,"
    <img id = 'img_b1' width = 18% height = 32% style = 'position:absolute;top:10%;left:25%'>
    <img id = 'img_b2' width = 18% height = 32% style = 'position:absolute;top:10%;right:25%'>
    <img id = 'img_b3' width = 18% height = 32% style = 'position:absolute;bottom:10%;left:25%'>
    <img id = 'img_b4' width = 18% height = 32% style = 'position:absolute;bottom:10%;right:25%'>
    <div id = 'band_txt'></div>
    <div id = 'cum' style = 'position:absolute;top:5%;right:5%;font-size:calc(18px + 6 * ((100vw - 320px) / 680))'></div>
  ","""","""","""","""","""","""","""","""","""","2021-05-13 19:11:44",223.182.164.48,"Mozilla/5.0 (Windows NT 10.0; Win64; x64) AppleWebKit/537.36 (KHTML, like Gecko) Chrome/90.0.4430.93 Safari/537.36",WebKit,Chrome,90.0.4430.93,Windows,10.0
148,1,null,null,html-keyboard-response,65,191237,0.0-65.0,"<div style=""font-size:60px;"">+</div>","""","""","""","""","""","""","""","""","""","2021-05-13 19:11:44",223.182.164.48,"Mozilla/5.0 (Windows NT 10.0; Win64; x64) AppleWebKit/537.36 (KHTML, like Gecko) Chrome/90.0.4430.93 Safari/537.36",WebKit,Chrome,90.0.4430.93,Windows,10.0
148,1,822.6949999807402,p,html-keyboard-response,66,192060,0.0-66.0,"
    <img id = 'img_b1' width = 18% height = 32% style = 'position:absolute;top:10%;left:25%'>
    <img id = 'img_b2' width = 18% height = 32% style = 'position:absolute;top:10%;right:25%'>
    <img id = 'img_b3' width = 18% height = 32% style = 'position:absolute;bottom:10%;left:25%'>
    <img id = 'img_b4' width = 18% height = 32% style = 'position:absolute;bottom:10%;right:25%'>
    <div id = 'cum' style = 'position:absolute;top:5%;right:5%;font-size:calc(18px + 6 * ((100vw - 320px) / 680))'></div>
  ","""","""","""","""","""","""","""","""","""","2021-05-13 19:11:44",223.182.164.48,"Mozilla/5.0 (Windows NT 10.0; Win64; x64) AppleWebKit/537.36 (KHTML, like Gecko) Chrome/90.0.4430.93 Safari/537.36",WebKit,Chrome,90.0.4430.93,Windows,10.0
148,1,null,null,html-keyboard-response,67,193570,0.0-67.0,"
    <img id = 'img_b1' width = 18% height = 32% style = 'position:absolute;top:10%;left:25%'>
    <img id = 'img_b2' width = 18% height = 32% style = 'position:absolute;top:10%;right:25%'>
    <img id = 'img_b3' width = 18% height = 32% style = 'position:absolute;bottom:10%;left:25%'>
    <img id = 'img_b4' width = 18% height = 32% style = 'position:absolute;bottom:10%;right:25%'>
    <div id = 'band_txt'></div>
    <div id = 'cum' style = 'position:absolute;top:5%;right:5%;font-size:calc(18px + 6 * ((100vw - 320px) / 680))'></div>
  ","""","""","""","""","""","""","""","""","""","2021-05-13 19:11:44",223.182.164.48,"Mozilla/5.0 (Windows NT 10.0; Win64; x64) AppleWebKit/537.36 (KHTML, like Gecko) Chrome/90.0.4430.93 Safari/537.36",WebKit,Chrome,90.0.4430.93,Windows,10.0
148,1,null,null,html-keyboard-response,68,195324,0.0-68.0,"<div style=""font-size:60px;"">+</div>","""","""","""","""","""","""","""","""","""","2021-05-13 19:11:44",223.182.164.48,"Mozilla/5.0 (Windows NT 10.0; Win64; x64) AppleWebKit/537.36 (KHTML, like Gecko) Chrome/90.0.4430.93 Safari/537.36",WebKit,Chrome,90.0.4430.93,Windows,10.0
148,1,1163.7699999846518,p,html-keyboard-response,69,196489,0.0-69.0,"
    <img id = 'img_b1' width = 18% height = 32% style = 'position:absolute;top:10%;left:25%'>
    <img id = 'img_b2' width = 18% height = 32% style = 'position:absolute;top:10%;right:25%'>
    <img id = 'img_b3' width = 18% height = 32% style = 'position:absolute;bottom:10%;left:25%'>
    <img id = 'img_b4' width = 18% height = 32% style = 'position:absolute;bottom:10%;right:25%'>
    <div id = 'cum' style = 'position:absolute;top:5%;right:5%;font-size:calc(18px + 6 * ((100vw - 320px) / 680))'></div>
  ","""","""","""","""","""","""","""","""","""","2021-05-13 19:11:44",223.182.164.48,"Mozilla/5.0 (Windows NT 10.0; Win64; x64) AppleWebKit/537.36 (KHTML, like Gecko) Chrome/90.0.4430.93 Safari/537.36",WebKit,Chrome,90.0.4430.93,Windows,10.0
148,1,null,null,html-keyboard-response,70,198000,0.0-70.0,"
    <img id = 'img_b1' width = 18% height = 32% style = 'position:absolute;top:10%;left:25%'>
    <img id = 'img_b2' width = 18% height = 32% style = 'position:absolute;top:10%;right:25%'>
    <img id = 'img_b3' width = 18% height = 32% style = 'position:absolute;bottom:10%;left:25%'>
    <img id = 'img_b4' width = 18% height = 32% style = 'position:absolute;bottom:10%;right:25%'>
    <div id = 'band_txt'></div>
    <div id = 'cum' style = 'position:absolute;top:5%;right:5%;font-size:calc(18px + 6 * ((100vw - 320px) / 680))'></div>
  ","""","""","""","""","""","""","""","""","""","2021-05-13 19:11:44",223.182.164.48,"Mozilla/5.0 (Windows NT 10.0; Win64; x64) AppleWebKit/537.36 (KHTML, like Gecko) Chrome/90.0.4430.93 Safari/537.36",WebKit,Chrome,90.0.4430.93,Windows,10.0
148,1,null,null,html-keyboard-response,71,199011,0.0-71.0,"<div style=""font-size:60px;"">+</div>","""","""","""","""","""","""","""","""","""","2021-05-13 19:11:44",223.182.164.48,"Mozilla/5.0 (Windows NT 10.0; Win64; x64) AppleWebKit/537.36 (KHTML, like Gecko) Chrome/90.0.4430.93 Safari/537.36",WebKit,Chrome,90.0.4430.93,Windows,10.0
148,1,429.71500009298325,p,html-keyboard-response,72,199442,0.0-72.0,"
    <img id = 'img_b1' width = 18% height = 32% style = 'position:absolute;top:10%;left:25%'>
    <img id = 'img_b2' width = 18% height = 32% style = 'position:absolute;top:10%;right:25%'>
    <img id = 'img_b3' width = 18% height = 32% style = 'position:absolute;bottom:10%;left:25%'>
    <img id = 'img_b4' width = 18% height = 32% style = 'position:absolute;bottom:10%;right:25%'>
    <div id = 'cum' style = 'position:absolute;top:5%;right:5%;font-size:calc(18px + 6 * ((100vw - 320px) / 680))'></div>
  ","""","""","""","""","""","""","""","""","""","2021-05-13 19:11:44",223.182.164.48,"Mozilla/5.0 (Windows NT 10.0; Win64; x64) AppleWebKit/537.36 (KHTML, like Gecko) Chrome/90.0.4430.93 Safari/537.36",WebKit,Chrome,90.0.4430.93,Windows,10.0
148,1,null,null,html-keyboard-response,73,200948,0.0-73.0,"
    <img id = 'img_b1' width = 18% height = 32% style = 'position:absolute;top:10%;left:25%'>
    <img id = 'img_b2' width = 18% height = 32% style = 'position:absolute;top:10%;right:25%'>
    <img id = 'img_b3' width = 18% height = 32% style = 'position:absolute;bottom:10%;left:25%'>
    <img id = 'img_b4' width = 18% height = 32% style = 'position:absolute;bottom:10%;right:25%'>
    <div id = 'band_txt'></div>
    <div id = 'cum' style = 'position:absolute;top:5%;right:5%;font-size:calc(18px + 6 * ((100vw - 320px) / 680))'></div>
  ","""","""","""","""","""","""","""","""","""","2021-05-13 19:11:44",223.182.164.48,"Mozilla/5.0 (Windows NT 10.0; Win64; x64) AppleWebKit/537.36 (KHTML, like Gecko) Chrome/90.0.4430.93 Safari/537.36",WebKit,Chrome,90.0.4430.93,Windows,10.0
148,1,null,null,html-keyboard-response,74,201705,0.0-74.0,"<div style=""font-size:60px;"">+</div>","""","""","""","""","""","""","""","""","""","2021-05-13 19:11:44",223.182.164.48,"Mozilla/5.0 (Windows NT 10.0; Win64; x64) AppleWebKit/537.36 (KHTML, like Gecko) Chrome/90.0.4430.93 Safari/537.36",WebKit,Chrome,90.0.4430.93,Windows,10.0
148,1,282.60999999474734,p,html-keyboard-response,75,201989,0.0-75.0,"
    <img id = 'img_b1' width = 18% height = 32% style = 'position:absolute;top:10%;left:25%'>
    <img id = 'img_b2' width = 18% height = 32% style = 'position:absolute;top:10%;right:25%'>
    <img id = 'img_b3' width = 18% height = 32% style = 'position:absolute;bottom:10%;left:25%'>
    <img id = 'img_b4' width = 18% height = 32% style = 'position:absolute;bottom:10%;right:25%'>
    <div id = 'cum' style = 'position:absolute;top:5%;right:5%;font-size:calc(18px + 6 * ((100vw - 320px) / 680))'></div>
  ","""","""","""","""","""","""","""","""","""","2021-05-13 19:11:44",223.182.164.48,"Mozilla/5.0 (Windows NT 10.0; Win64; x64) AppleWebKit/537.36 (KHTML, like Gecko) Chrome/90.0.4430.93 Safari/537.36",WebKit,Chrome,90.0.4430.93,Windows,10.0
148,1,null,null,html-keyboard-response,76,203492,0.0-76.0,"
    <img id = 'img_b1' width = 18% height = 32% style = 'position:absolute;top:10%;left:25%'>
    <img id = 'img_b2' width = 18% height = 32% style = 'position:absolute;top:10%;right:25%'>
    <img id = 'img_b3' width = 18% height = 32% style = 'position:absolute;bottom:10%;left:25%'>
    <img id = 'img_b4' width = 18% height = 32% style = 'position:absolute;bottom:10%;right:25%'>
    <div id = 'band_txt'></div>
    <div id = 'cum' style = 'position:absolute;top:5%;right:5%;font-size:calc(18px + 6 * ((100vw - 320px) / 680))'></div>
  ","""","""","""","""","""","""","""","""","""","2021-05-13 19:11:44",223.182.164.48,"Mozilla/5.0 (Windows NT 10.0; Win64; x64) AppleWebKit/537.36 (KHTML, like Gecko) Chrome/90.0.4430.93 Safari/537.36",WebKit,Chrome,90.0.4430.93,Windows,10.0
148,1,null,null,html-keyboard-response,77,204755,0.0-77.0,"<div style=""font-size:60px;"">+</div>","""","""","""","""","""","""","""","""","""","2021-05-13 19:11:44",223.182.164.48,"Mozilla/5.0 (Windows NT 10.0; Win64; x64) AppleWebKit/537.36 (KHTML, like Gecko) Chrome/90.0.4430.93 Safari/537.36",WebKit,Chrome,90.0.4430.93,Windows,10.0
148,1,260.35499991849065,p,html-keyboard-response,78,205016,0.0-78.0,"
    <img id = 'img_b1' width = 18% height = 32% style = 'position:absolute;top:10%;left:25%'>
    <img id = 'img_b2' width = 18% height = 32% style = 'position:absolute;top:10%;right:25%'>
    <img id = 'img_b3' width = 18% height = 32% style = 'position:absolute;bottom:10%;left:25%'>
    <img id = 'img_b4' width = 18% height = 32% style = 'position:absolute;bottom:10%;right:25%'>
    <div id = 'cum' style = 'position:absolute;top:5%;right:5%;font-size:calc(18px + 6 * ((100vw - 320px) / 680))'></div>
  ","""","""","""","""","""","""","""","""","""","2021-05-13 19:11:44",223.182.164.48,"Mozilla/5.0 (Windows NT 10.0; Win64; x64) AppleWebKit/537.36 (KHTML, like Gecko) Chrome/90.0.4430.93 Safari/537.36",WebKit,Chrome,90.0.4430.93,Windows,10.0
148,1,null,null,html-keyboard-response,79,206524,0.0-79.0,"
    <img id = 'img_b1' width = 18% height = 32% style = 'position:absolute;top:10%;left:25%'>
    <img id = 'img_b2' width = 18% height = 32% style = 'position:absolute;top:10%;right:25%'>
    <img id = 'img_b3' width = 18% height = 32% style = 'position:absolute;bottom:10%;left:25%'>
    <img id = 'img_b4' width = 18% height = 32% style = 'position:absolute;bottom:10%;right:25%'>
    <div id = 'band_txt'></div>
    <div id = 'cum' style = 'position:absolute;top:5%;right:5%;font-size:calc(18px + 6 * ((100vw - 320px) / 680))'></div>
  ","""","""","""","""","""","""","""","""","""","2021-05-13 19:11:44",223.182.164.48,"Mozilla/5.0 (Windows NT 10.0; Win64; x64) AppleWebKit/537.36 (KHTML, like Gecko) Chrome/90.0.4430.93 Safari/537.36",WebKit,Chrome,90.0.4430.93,Windows,10.0
148,1,null,null,html-keyboard-response,80,208276,0.0-80.0,"<div style=""font-size:60px;"">+</div>","""","""","""","""","""","""","""","""","""","2021-05-13 19:11:44",223.182.164.48,"Mozilla/5.0 (Windows NT 10.0; Win64; x64) AppleWebKit/537.36 (KHTML, like Gecko) Chrome/90.0.4430.93 Safari/537.36",WebKit,Chrome,90.0.4430.93,Windows,10.0
148,1,334.15000000968575,p,html-keyboard-response,81,208610,0.0-81.0,"
    <img id = 'img_b1' width = 18% height = 32% style = 'position:absolute;top:10%;left:25%'>
    <img id = 'img_b2' width = 18% height = 32% style = 'position:absolute;top:10%;right:25%'>
    <img id = 'img_b3' width = 18% height = 32% style = 'position:absolute;bottom:10%;left:25%'>
    <img id = 'img_b4' width = 18% height = 32% style = 'position:absolute;bottom:10%;right:25%'>
    <div id = 'cum' style = 'position:absolute;top:5%;right:5%;font-size:calc(18px + 6 * ((100vw - 320px) / 680))'></div>
  ","""","""","""","""","""","""","""","""","""","2021-05-13 19:11:44",223.182.164.48,"Mozilla/5.0 (Windows NT 10.0; Win64; x64) AppleWebKit/537.36 (KHTML, like Gecko) Chrome/90.0.4430.93 Safari/537.36",WebKit,Chrome,90.0.4430.93,Windows,10.0
148,1,null,null,html-keyboard-response,82,210126,0.0-82.0,"
    <img id = 'img_b1' width = 18% height = 32% style = 'position:absolute;top:10%;left:25%'>
    <img id = 'img_b2' width = 18% height = 32% style = 'position:absolute;top:10%;right:25%'>
    <img id = 'img_b3' width = 18% height = 32% style = 'position:absolute;bottom:10%;left:25%'>
    <img id = 'img_b4' width = 18% height = 32% style = 'position:absolute;bottom:10%;right:25%'>
    <div id = 'band_txt'></div>
    <div id = 'cum' style = 'position:absolute;top:5%;right:5%;font-size:calc(18px + 6 * ((100vw - 320px) / 680))'></div>
  ","""","""","""","""","""","""","""","""","""","2021-05-13 19:11:44",223.182.164.48,"Mozilla/5.0 (Windows NT 10.0; Win64; x64) AppleWebKit/537.36 (KHTML, like Gecko) Chrome/90.0.4430.93 Safari/537.36",WebKit,Chrome,90.0.4430.93,Windows,10.0
148,1,null,null,html-keyboard-response,83,211642,0.0-83.0,"<div style=""font-size:60px;"">+</div>","""","""","""","""","""","""","""","""","""","2021-05-13 19:11:44",223.182.164.48,"Mozilla/5.0 (Windows NT 10.0; Win64; x64) AppleWebKit/537.36 (KHTML, like Gecko) Chrome/90.0.4430.93 Safari/537.36",WebKit,Chrome,90.0.4430.93,Windows,10.0
148,1,446.32999994792044,p,html-keyboard-response,84,212089,0.0-84.0,"
    <img id = 'img_b1' width = 18% height = 32% style = 'position:absolute;top:10%;left:25%'>
    <img id = 'img_b2' width = 18% height = 32% style = 'position:absolute;top:10%;right:25%'>
    <img id = 'img_b3' width = 18% height = 32% style = 'position:absolute;bottom:10%;left:25%'>
    <img id = 'img_b4' width = 18% height = 32% style = 'position:absolute;bottom:10%;right:25%'>
    <div id = 'cum' style = 'position:absolute;top:5%;right:5%;font-size:calc(18px + 6 * ((100vw - 320px) / 680))'></div>
  ","""","""","""","""","""","""","""","""","""","2021-05-13 19:11:44",223.182.164.48,"Mozilla/5.0 (Windows NT 10.0; Win64; x64) AppleWebKit/537.36 (KHTML, like Gecko) Chrome/90.0.4430.93 Safari/537.36",WebKit,Chrome,90.0.4430.93,Windows,10.0
148,1,null,null,html-keyboard-response,85,213598,0.0-85.0,"
    <img id = 'img_b1' width = 18% height = 32% style = 'position:absolute;top:10%;left:25%'>
    <img id = 'img_b2' width = 18% height = 32% style = 'position:absolute;top:10%;right:25%'>
    <img id = 'img_b3' width = 18% height = 32% style = 'position:absolute;bottom:10%;left:25%'>
    <img id = 'img_b4' width = 18% height = 32% style = 'position:absolute;bottom:10%;right:25%'>
    <div id = 'band_txt'></div>
    <div id = 'cum' style = 'position:absolute;top:5%;right:5%;font-size:calc(18px + 6 * ((100vw - 320px) / 680))'></div>
  ","""","""","""","""","""","""","""","""","""","2021-05-13 19:11:44",223.182.164.48,"Mozilla/5.0 (Windows NT 10.0; Win64; x64) AppleWebKit/537.36 (KHTML, like Gecko) Chrome/90.0.4430.93 Safari/537.36",WebKit,Chrome,90.0.4430.93,Windows,10.0
148,1,null,null,html-keyboard-response,86,214858,0.0-86.0,"<div style=""font-size:60px;"">+</div>","""","""","""","""","""","""","""","""","""","2021-05-13 19:11:44",223.182.164.48,"Mozilla/5.0 (Windows NT 10.0; Win64; x64) AppleWebKit/537.36 (KHTML, like Gecko) Chrome/90.0.4430.93 Safari/537.36",WebKit,Chrome,90.0.4430.93,Windows,10.0
148,1,327.36500003375113,p,html-keyboard-response,87,215186,0.0-87.0,"
    <img id = 'img_b1' width = 18% height = 32% style = 'position:absolute;top:10%;left:25%'>
    <img id = 'img_b2' width = 18% height = 32% style = 'position:absolute;top:10%;right:25%'>
    <img id = 'img_b3' width = 18% height = 32% style = 'position:absolute;bottom:10%;left:25%'>
    <img id = 'img_b4' width = 18% height = 32% style = 'position:absolute;bottom:10%;right:25%'>
    <div id = 'cum' style = 'position:absolute;top:5%;right:5%;font-size:calc(18px + 6 * ((100vw - 320px) / 680))'></div>
  ","""","""","""","""","""","""","""","""","""","2021-05-13 19:11:44",223.182.164.48,"Mozilla/5.0 (Windows NT 10.0; Win64; x64) AppleWebKit/537.36 (KHTML, like Gecko) Chrome/90.0.4430.93 Safari/537.36",WebKit,Chrome,90.0.4430.93,Windows,10.0
148,1,null,null,html-keyboard-response,88,216689,0.0-88.0,"
    <img id = 'img_b1' width = 18% height = 32% style = 'position:absolute;top:10%;left:25%'>
    <img id = 'img_b2' width = 18% height = 32% style = 'position:absolute;top:10%;right:25%'>
    <img id = 'img_b3' width = 18% height = 32% style = 'position:absolute;bottom:10%;left:25%'>
    <img id = 'img_b4' width = 18% height = 32% style = 'position:absolute;bottom:10%;right:25%'>
    <div id = 'band_txt'></div>
    <div id = 'cum' style = 'position:absolute;top:5%;right:5%;font-size:calc(18px + 6 * ((100vw - 320px) / 680))'></div>
  ","""","""","""","""","""","""","""","""","""","2021-05-13 19:11:44",223.182.164.48,"Mozilla/5.0 (Windows NT 10.0; Win64; x64) AppleWebKit/537.36 (KHTML, like Gecko) Chrome/90.0.4430.93 Safari/537.36",WebKit,Chrome,90.0.4430.93,Windows,10.0
148,1,null,null,html-keyboard-response,89,217952,0.0-89.0,"<div style=""font-size:60px;"">+</div>","""","""","""","""","""","""","""","""","""","2021-05-13 19:11:44",223.182.164.48,"Mozilla/5.0 (Windows NT 10.0; Win64; x64) AppleWebKit/537.36 (KHTML, like Gecko) Chrome/90.0.4430.93 Safari/537.36",WebKit,Chrome,90.0.4430.93,Windows,10.0
148,1,318.91999999061227,p,html-keyboard-response,90,218272,0.0-90.0,"
    <img id = 'img_b1' width = 18% height = 32% style = 'position:absolute;top:10%;left:25%'>
    <img id = 'img_b2' width = 18% height = 32% style = 'position:absolute;top:10%;right:25%'>
    <img id = 'img_b3' width = 18% height = 32% style = 'position:absolute;bottom:10%;left:25%'>
    <img id = 'img_b4' width = 18% height = 32% style = 'position:absolute;bottom:10%;right:25%'>
    <div id = 'cum' style = 'position:absolute;top:5%;right:5%;font-size:calc(18px + 6 * ((100vw - 320px) / 680))'></div>
  ","""","""","""","""","""","""","""","""","""","2021-05-13 19:11:44",223.182.164.48,"Mozilla/5.0 (Windows NT 10.0; Win64; x64) AppleWebKit/537.36 (KHTML, like Gecko) Chrome/90.0.4430.93 Safari/537.36",WebKit,Chrome,90.0.4430.93,Windows,10.0
148,1,null,null,html-keyboard-response,91,219786,0.0-91.0,"
    <img id = 'img_b1' width = 18% height = 32% style = 'position:absolute;top:10%;left:25%'>
    <img id = 'img_b2' width = 18% height = 32% style = 'position:absolute;top:10%;right:25%'>
    <img id = 'img_b3' width = 18% height = 32% style = 'position:absolute;bottom:10%;left:25%'>
    <img id = 'img_b4' width = 18% height = 32% style = 'position:absolute;bottom:10%;right:25%'>
    <div id = 'band_txt'></div>
    <div id = 'cum' style = 'position:absolute;top:5%;right:5%;font-size:calc(18px + 6 * ((100vw - 320px) / 680))'></div>
  ","""","""","""","""","""","""","""","""","""","2021-05-13 19:11:44",223.182.164.48,"Mozilla/5.0 (Windows NT 10.0; Win64; x64) AppleWebKit/537.36 (KHTML, like Gecko) Chrome/90.0.4430.93 Safari/537.36",WebKit,Chrome,90.0.4430.93,Windows,10.0
148,1,null,null,html-keyboard-response,92,221550,0.0-92.0,"<div style=""font-size:60px;"">+</div>","""","""","""","""","""","""","""","""","""","2021-05-13 19:11:44",223.182.164.48,"Mozilla/5.0 (Windows NT 10.0; Win64; x64) AppleWebKit/537.36 (KHTML, like Gecko) Chrome/90.0.4430.93 Safari/537.36",WebKit,Chrome,90.0.4430.93,Windows,10.0
148,1,512.9599999636412,p,html-keyboard-response,93,222065,0.0-93.0,"
    <img id = 'img_b1' width = 18% height = 32% style = 'position:absolute;top:10%;left:25%'>
    <img id = 'img_b2' width = 18% height = 32% style = 'position:absolute;top:10%;right:25%'>
    <img id = 'img_b3' width = 18% height = 32% style = 'position:absolute;bottom:10%;left:25%'>
    <img id = 'img_b4' width = 18% height = 32% style = 'position:absolute;bottom:10%;right:25%'>
    <div id = 'cum' style = 'position:absolute;top:5%;right:5%;font-size:calc(18px + 6 * ((100vw - 320px) / 680))'></div>
  ","""","""","""","""","""","""","""","""","""","2021-05-13 19:11:44",223.182.164.48,"Mozilla/5.0 (Windows NT 10.0; Win64; x64) AppleWebKit/537.36 (KHTML, like Gecko) Chrome/90.0.4430.93 Safari/537.36",WebKit,Chrome,90.0.4430.93,Windows,10.0
148,1,null,null,html-keyboard-response,94,223567,0.0-94.0,"
    <img id = 'img_b1' width = 18% height = 32% style = 'position:absolute;top:10%;left:25%'>
    <img id = 'img_b2' width = 18% height = 32% style = 'position:absolute;top:10%;right:25%'>
    <img id = 'img_b3' width = 18% height = 32% style = 'position:absolute;bottom:10%;left:25%'>
    <img id = 'img_b4' width = 18% height = 32% style = 'position:absolute;bottom:10%;right:25%'>
    <div id = 'band_txt'></div>
    <div id = 'cum' style = 'position:absolute;top:5%;right:5%;font-size:calc(18px + 6 * ((100vw - 320px) / 680))'></div>
  ","""","""","""","""","""","""","""","""","""","2021-05-13 19:11:44",223.182.164.48,"Mozilla/5.0 (Windows NT 10.0; Win64; x64) AppleWebKit/537.36 (KHTML, like Gecko) Chrome/90.0.4430.93 Safari/537.36",WebKit,Chrome,90.0.4430.93,Windows,10.0
148,1,null,null,html-keyboard-response,95,224574,0.0-95.0,"<div style=""font-size:60px;"">+</div>","""","""","""","""","""","""","""","""","""","2021-05-13 19:11:44",223.182.164.48,"Mozilla/5.0 (Windows NT 10.0; Win64; x64) AppleWebKit/537.36 (KHTML, like Gecko) Chrome/90.0.4430.93 Safari/537.36",WebKit,Chrome,90.0.4430.93,Windows,10.0
148,1,485.69500003941357,p,html-keyboard-response,96,225061,0.0-96.0,"
    <img id = 'img_b1' width = 18% height = 32% style = 'position:absolute;top:10%;left:25%'>
    <img id = 'img_b2' width = 18% height = 32% style = 'position:absolute;top:10%;right:25%'>
    <img id = 'img_b3' width = 18% height = 32% style = 'position:absolute;bottom:10%;left:25%'>
    <img id = 'img_b4' width = 18% height = 32% style = 'position:absolute;bottom:10%;right:25%'>
    <div id = 'cum' style = 'position:absolute;top:5%;right:5%;font-size:calc(18px + 6 * ((100vw - 320px) / 680))'></div>
  ","""","""","""","""","""","""","""","""","""","2021-05-13 19:11:44",223.182.164.48,"Mozilla/5.0 (Windows NT 10.0; Win64; x64) AppleWebKit/537.36 (KHTML, like Gecko) Chrome/90.0.4430.93 Safari/537.36",WebKit,Chrome,90.0.4430.93,Windows,10.0
148,1,null,null,html-keyboard-response,97,226564,0.0-97.0,"
    <img id = 'img_b1' width = 18% height = 32% style = 'position:absolute;top:10%;left:25%'>
    <img id = 'img_b2' width = 18% height = 32% style = 'position:absolute;top:10%;right:25%'>
    <img id = 'img_b3' width = 18% height = 32% style = 'position:absolute;bottom:10%;left:25%'>
    <img id = 'img_b4' width = 18% height = 32% style = 'position:absolute;bottom:10%;right:25%'>
    <div id = 'band_txt'></div>
    <div id = 'cum' style = 'position:absolute;top:5%;right:5%;font-size:calc(18px + 6 * ((100vw - 320px) / 680))'></div>
  ","""","""","""","""","""","""","""","""","""","2021-05-13 19:11:44",223.182.164.48,"Mozilla/5.0 (Windows NT 10.0; Win64; x64) AppleWebKit/537.36 (KHTML, like Gecko) Chrome/90.0.4430.93 Safari/537.36",WebKit,Chrome,90.0.4430.93,Windows,10.0
148,1,null,null,html-keyboard-response,98,228066,0.0-98.0,"<div style=""font-size:60px;"">+</div>","""","""","""","""","""","""","""","""","""","2021-05-13 19:11:44",223.182.164.48,"Mozilla/5.0 (Windows NT 10.0; Win64; x64) AppleWebKit/537.36 (KHTML, like Gecko) Chrome/90.0.4430.93 Safari/537.36",WebKit,Chrome,90.0.4430.93,Windows,10.0
148,1,468.9250000519678,p,html-keyboard-response,99,228539,0.0-99.0,"
    <img id = 'img_b1' width = 18% height = 32% style = 'position:absolute;top:10%;left:25%'>
    <img id = 'img_b2' width = 18% height = 32% style = 'position:absolute;top:10%;right:25%'>
    <img id = 'img_b3' width = 18% height = 32% style = 'position:absolute;bottom:10%;left:25%'>
    <img id = 'img_b4' width = 18% height = 32% style = 'position:absolute;bottom:10%;right:25%'>
    <div id = 'cum' style = 'position:absolute;top:5%;right:5%;font-size:calc(18px + 6 * ((100vw - 320px) / 680))'></div>
  ","""","""","""","""","""","""","""","""","""","2021-05-13 19:11:44",223.182.164.48,"Mozilla/5.0 (Windows NT 10.0; Win64; x64) AppleWebKit/537.36 (KHTML, like Gecko) Chrome/90.0.4430.93 Safari/537.36",WebKit,Chrome,90.0.4430.93,Windows,10.0
148,1,null,null,html-keyboard-response,100,230052,0.0-100.0,"
    <img id = 'img_b1' width = 18% height = 32% style = 'position:absolute;top:10%;left:25%'>
    <img id = 'img_b2' width = 18% height = 32% style = 'position:absolute;top:10%;right:25%'>
    <img id = 'img_b3' width = 18% height = 32% style = 'position:absolute;bottom:10%;left:25%'>
    <img id = 'img_b4' width = 18% height = 32% style = 'position:absolute;bottom:10%;right:25%'>
    <div id = 'band_txt'></div>
    <div id = 'cum' style = 'position:absolute;top:5%;right:5%;font-size:calc(18px + 6 * ((100vw - 320px) / 680))'></div>
  ","""","""","""","""","""","""","""","""","""","2021-05-13 19:11:44",223.182.164.48,"Mozilla/5.0 (Windows NT 10.0; Win64; x64) AppleWebKit/537.36 (KHTML, like Gecko) Chrome/90.0.4430.93 Safari/537.36",WebKit,Chrome,90.0.4430.93,Windows,10.0
148,1,null,null,html-keyboard-response,101,231567,0.0-101.0,"<div style=""font-size:60px;"">+</div>","""","""","""","""","""","""","""","""","""","2021-05-13 19:11:44",223.182.164.48,"Mozilla/5.0 (Windows NT 10.0; Win64; x64) AppleWebKit/537.36 (KHTML, like Gecko) Chrome/90.0.4430.93 Safari/537.36",WebKit,Chrome,90.0.4430.93,Windows,10.0
148,1,584.3700000550598,p,html-keyboard-response,102,232152,0.0-102.0,"
    <img id = 'img_b1' width = 18% height = 32% style = 'position:absolute;top:10%;left:25%'>
    <img id = 'img_b2' width = 18% height = 32% style = 'position:absolute;top:10%;right:25%'>
    <img id = 'img_b3' width = 18% height = 32% style = 'position:absolute;bottom:10%;left:25%'>
    <img id = 'img_b4' width = 18% height = 32% style = 'position:absolute;bottom:10%;right:25%'>
    <div id = 'cum' style = 'position:absolute;top:5%;right:5%;font-size:calc(18px + 6 * ((100vw - 320px) / 680))'></div>
  ","""","""","""","""","""","""","""","""","""","2021-05-13 19:11:44",223.182.164.48,"Mozilla/5.0 (Windows NT 10.0; Win64; x64) AppleWebKit/537.36 (KHTML, like Gecko) Chrome/90.0.4430.93 Safari/537.36",WebKit,Chrome,90.0.4430.93,Windows,10.0
148,1,null,null,html-keyboard-response,103,233666,0.0-103.0,"
    <img id = 'img_b1' width = 18% height = 32% style = 'position:absolute;top:10%;left:25%'>
    <img id = 'img_b2' width = 18% height = 32% style = 'position:absolute;top:10%;right:25%'>
    <img id = 'img_b3' width = 18% height = 32% style = 'position:absolute;bottom:10%;left:25%'>
    <img id = 'img_b4' width = 18% height = 32% style = 'position:absolute;bottom:10%;right:25%'>
    <div id = 'band_txt'></div>
    <div id = 'cum' style = 'position:absolute;top:5%;right:5%;font-size:calc(18px + 6 * ((100vw - 320px) / 680))'></div>
  ","""","""","""","""","""","""","""","""","""","2021-05-13 19:11:44",223.182.164.48,"Mozilla/5.0 (Windows NT 10.0; Win64; x64) AppleWebKit/537.36 (KHTML, like Gecko) Chrome/90.0.4430.93 Safari/537.36",WebKit,Chrome,90.0.4430.93,Windows,10.0
148,1,null,null,html-keyboard-response,104,235432,0.0-104.0,"<div style=""font-size:60px;"">+</div>","""","""","""","""","""","""","""","""","""","2021-05-13 19:11:44",223.182.164.48,"Mozilla/5.0 (Windows NT 10.0; Win64; x64) AppleWebKit/537.36 (KHTML, like Gecko) Chrome/90.0.4430.93 Safari/537.36",WebKit,Chrome,90.0.4430.93,Windows,10.0
148,1,305.5849999655038,p,html-keyboard-response,105,235738,0.0-105.0,"
    <img id = 'img_b1' width = 18% height = 32% style = 'position:absolute;top:10%;left:25%'>
    <img id = 'img_b2' width = 18% height = 32% style = 'position:absolute;top:10%;right:25%'>
    <img id = 'img_b3' width = 18% height = 32% style = 'position:absolute;bottom:10%;left:25%'>
    <img id = 'img_b4' width = 18% height = 32% style = 'position:absolute;bottom:10%;right:25%'>
    <div id = 'cum' style = 'position:absolute;top:5%;right:5%;font-size:calc(18px + 6 * ((100vw - 320px) / 680))'></div>
  ","""","""","""","""","""","""","""","""","""","2021-05-13 19:11:44",223.182.164.48,"Mozilla/5.0 (Windows NT 10.0; Win64; x64) AppleWebKit/537.36 (KHTML, like Gecko) Chrome/90.0.4430.93 Safari/537.36",WebKit,Chrome,90.0.4430.93,Windows,10.0
148,1,null,null,html-keyboard-response,106,237239,0.0-106.0,"
    <img id = 'img_b1' width = 18% height = 32% style = 'position:absolute;top:10%;left:25%'>
    <img id = 'img_b2' width = 18% height = 32% style = 'position:absolute;top:10%;right:25%'>
    <img id = 'img_b3' width = 18% height = 32% style = 'position:absolute;bottom:10%;left:25%'>
    <img id = 'img_b4' width = 18% height = 32% style = 'position:absolute;bottom:10%;right:25%'>
    <div id = 'band_txt'></div>
    <div id = 'cum' style = 'position:absolute;top:5%;right:5%;font-size:calc(18px + 6 * ((100vw - 320px) / 680))'></div>
  ","""","""","""","""","""","""","""","""","""","2021-05-13 19:11:44",223.182.164.48,"Mozilla/5.0 (Windows NT 10.0; Win64; x64) AppleWebKit/537.36 (KHTML, like Gecko) Chrome/90.0.4430.93 Safari/537.36",WebKit,Chrome,90.0.4430.93,Windows,10.0
148,1,null,null,html-keyboard-response,107,237996,0.0-107.0,"<div style=""font-size:60px;"">+</div>","""","""","""","""","""","""","""","""","""","2021-05-13 19:11:44",223.182.164.48,"Mozilla/5.0 (Windows NT 10.0; Win64; x64) AppleWebKit/537.36 (KHTML, like Gecko) Chrome/90.0.4430.93 Safari/537.36",WebKit,Chrome,90.0.4430.93,Windows,10.0
148,1,424.0449999924749,p,html-keyboard-response,108,238421,0.0-108.0,"
    <img id = 'img_b1' width = 18% height = 32% style = 'position:absolute;top:10%;left:25%'>
    <img id = 'img_b2' width = 18% height = 32% style = 'position:absolute;top:10%;right:25%'>
    <img id = 'img_b3' width = 18% height = 32% style = 'position:absolute;bottom:10%;left:25%'>
    <img id = 'img_b4' width = 18% height = 32% style = 'position:absolute;bottom:10%;right:25%'>
    <div id = 'cum' style = 'position:absolute;top:5%;right:5%;font-size:calc(18px + 6 * ((100vw - 320px) / 680))'></div>
  ","""","""","""","""","""","""","""","""","""","2021-05-13 19:11:44",223.182.164.48,"Mozilla/5.0 (Windows NT 10.0; Win64; x64) AppleWebKit/537.36 (KHTML, like Gecko) Chrome/90.0.4430.93 Safari/537.36",WebKit,Chrome,90.0.4430.93,Windows,10.0
148,1,null,null,html-keyboard-response,109,239931,0.0-109.0,"
    <img id = 'img_b1' width = 18% height = 32% style = 'position:absolute;top:10%;left:25%'>
    <img id = 'img_b2' width = 18% height = 32% style = 'position:absolute;top:10%;right:25%'>
    <img id = 'img_b3' width = 18% height = 32% style = 'position:absolute;bottom:10%;left:25%'>
    <img id = 'img_b4' width = 18% height = 32% style = 'position:absolute;bottom:10%;right:25%'>
    <div id = 'band_txt'></div>
    <div id = 'cum' style = 'position:absolute;top:5%;right:5%;font-size:calc(18px + 6 * ((100vw - 320px) / 680))'></div>
  ","""","""","""","""","""","""","""","""","""","2021-05-13 19:11:44",223.182.164.48,"Mozilla/5.0 (Windows NT 10.0; Win64; x64) AppleWebKit/537.36 (KHTML, like Gecko) Chrome/90.0.4430.93 Safari/537.36",WebKit,Chrome,90.0.4430.93,Windows,10.0
148,1,null,null,html-keyboard-response,110,240937,0.0-110.0,"<div style=""font-size:60px;"">+</div>","""","""","""","""","""","""","""","""","""","2021-05-13 19:11:44",223.182.164.48,"Mozilla/5.0 (Windows NT 10.0; Win64; x64) AppleWebKit/537.36 (KHTML, like Gecko) Chrome/90.0.4430.93 Safari/537.36",WebKit,Chrome,90.0.4430.93,Windows,10.0
148,1,265.06999996490777,p,html-keyboard-response,111,241203,0.0-111.0,"
    <img id = 'img_b1' width = 18% height = 32% style = 'position:absolute;top:10%;left:25%'>
    <img id = 'img_b2' width = 18% height = 32% style = 'position:absolute;top:10%;right:25%'>
    <img id = 'img_b3' width = 18% height = 32% style = 'position:absolute;bottom:10%;left:25%'>
    <img id = 'img_b4' width = 18% height = 32% style = 'position:absolute;bottom:10%;right:25%'>
    <div id = 'cum' style = 'position:absolute;top:5%;right:5%;font-size:calc(18px + 6 * ((100vw - 320px) / 680))'></div>
  ","""","""","""","""","""","""","""","""","""","2021-05-13 19:11:44",223.182.164.48,"Mozilla/5.0 (Windows NT 10.0; Win64; x64) AppleWebKit/537.36 (KHTML, like Gecko) Chrome/90.0.4430.93 Safari/537.36",WebKit,Chrome,90.0.4430.93,Windows,10.0
148,1,null,null,html-keyboard-response,112,242716,0.0-112.0,"
    <img id = 'img_b1' width = 18% height = 32% style = 'position:absolute;top:10%;left:25%'>
    <img id = 'img_b2' width = 18% height = 32% style = 'position:absolute;top:10%;right:25%'>
    <img id = 'img_b3' width = 18% height = 32% style = 'position:absolute;bottom:10%;left:25%'>
    <img id = 'img_b4' width = 18% height = 32% style = 'position:absolute;bottom:10%;right:25%'>
    <div id = 'band_txt'></div>
    <div id = 'cum' style = 'position:absolute;top:5%;right:5%;font-size:calc(18px + 6 * ((100vw - 320px) / 680))'></div>
  ","""","""","""","""","""","""","""","""","""","2021-05-13 19:11:44",223.182.164.48,"Mozilla/5.0 (Windows NT 10.0; Win64; x64) AppleWebKit/537.36 (KHTML, like Gecko) Chrome/90.0.4430.93 Safari/537.36",WebKit,Chrome,90.0.4430.93,Windows,10.0
148,1,null,null,html-keyboard-response,113,243721,0.0-113.0,"<div style=""font-size:60px;"">+</div>","""","""","""","""","""","""","""","""","""","2021-05-13 19:11:44",223.182.164.48,"Mozilla/5.0 (Windows NT 10.0; Win64; x64) AppleWebKit/537.36 (KHTML, like Gecko) Chrome/90.0.4430.93 Safari/537.36",WebKit,Chrome,90.0.4430.93,Windows,10.0
148,1,421.34499992243946,m,html-keyboard-response,114,244143,0.0-114.0,"
    <img id = 'img_b1' width = 18% height = 32% style = 'position:absolute;top:10%;left:25%'>
    <img id = 'img_b2' width = 18% height = 32% style = 'position:absolute;top:10%;right:25%'>
    <img id = 'img_b3' width = 18% height = 32% style = 'position:absolute;bottom:10%;left:25%'>
    <img id = 'img_b4' width = 18% height = 32% style = 'position:absolute;bottom:10%;right:25%'>
    <div id = 'cum' style = 'position:absolute;top:5%;right:5%;font-size:calc(18px + 6 * ((100vw - 320px) / 680))'></div>
  ","""","""","""","""","""","""","""","""","""","2021-05-13 19:11:44",223.182.164.48,"Mozilla/5.0 (Windows NT 10.0; Win64; x64) AppleWebKit/537.36 (KHTML, like Gecko) Chrome/90.0.4430.93 Safari/537.36",WebKit,Chrome,90.0.4430.93,Windows,10.0
148,1,null,null,html-keyboard-response,115,245647,0.0-115.0,"
    <img id = 'img_b1' width = 18% height = 32% style = 'position:absolute;top:10%;left:25%'>
    <img id = 'img_b2' width = 18% height = 32% style = 'position:absolute;top:10%;right:25%'>
    <img id = 'img_b3' width = 18% height = 32% style = 'position:absolute;bottom:10%;left:25%'>
    <img id = 'img_b4' width = 18% height = 32% style = 'position:absolute;bottom:10%;right:25%'>
    <div id = 'band_txt'></div>
    <div id = 'cum' style = 'position:absolute;top:5%;right:5%;font-size:calc(18px + 6 * ((100vw - 320px) / 680))'></div>
  ","""","""","""","""","""","""","""","""","""","2021-05-13 19:11:44",223.182.164.48,"Mozilla/5.0 (Windows NT 10.0; Win64; x64) AppleWebKit/537.36 (KHTML, like Gecko) Chrome/90.0.4430.93 Safari/537.36",WebKit,Chrome,90.0.4430.93,Windows,10.0
148,1,null,null,html-keyboard-response,116,246910,0.0-116.0,"<div style=""font-size:60px;"">+</div>","""","""","""","""","""","""","""","""","""","2021-05-13 19:11:44",223.182.164.48,"Mozilla/5.0 (Windows NT 10.0; Win64; x64) AppleWebKit/537.36 (KHTML, like Gecko) Chrome/90.0.4430.93 Safari/537.36",WebKit,Chrome,90.0.4430.93,Windows,10.0
148,1,1762.6050000544637,z,html-keyboard-response,117,248674,0.0-117.0,"
    <img id = 'img_b1' width = 18% height = 32% style = 'position:absolute;top:10%;left:25%'>
    <img id = 'img_b2' width = 18% height = 32% style = 'position:absolute;top:10%;right:25%'>
    <img id = 'img_b3' width = 18% height = 32% style = 'position:absolute;bottom:10%;left:25%'>
    <img id = 'img_b4' width = 18% height = 32% style = 'position:absolute;bottom:10%;right:25%'>
    <div id = 'cum' style = 'position:absolute;top:5%;right:5%;font-size:calc(18px + 6 * ((100vw - 320px) / 680))'></div>
  ","""","""","""","""","""","""","""","""","""","2021-05-13 19:11:44",223.182.164.48,"Mozilla/5.0 (Windows NT 10.0; Win64; x64) AppleWebKit/537.36 (KHTML, like Gecko) Chrome/90.0.4430.93 Safari/537.36",WebKit,Chrome,90.0.4430.93,Windows,10.0
148,1,null,null,html-keyboard-response,118,250190,0.0-118.0,"
    <img id = 'img_b1' width = 18% height = 32% style = 'position:absolute;top:10%;left:25%'>
    <img id = 'img_b2' width = 18% height = 32% style = 'position:absolute;top:10%;right:25%'>
    <img id = 'img_b3' width = 18% height = 32% style = 'position:absolute;bottom:10%;left:25%'>
    <img id = 'img_b4' width = 18% height = 32% style = 'position:absolute;bottom:10%;right:25%'>
    <div id = 'band_txt'></div>
    <div id = 'cum' style = 'position:absolute;top:5%;right:5%;font-size:calc(18px + 6 * ((100vw - 320px) / 680))'></div>
  ","""","""","""","""","""","""","""","""","""","2021-05-13 19:11:44",223.182.164.48,"Mozilla/5.0 (Windows NT 10.0; Win64; x64) AppleWebKit/537.36 (KHTML, like Gecko) Chrome/90.0.4430.93 Safari/537.36",WebKit,Chrome,90.0.4430.93,Windows,10.0
148,1,null,null,html-keyboard-response,119,250946,0.0-119.0,"<div style=""font-size:60px;"">+</div>","""","""","""","""","""","""","""","""","""","2021-05-13 19:11:44",223.182.164.48,"Mozilla/5.0 (Windows NT 10.0; Win64; x64) AppleWebKit/537.36 (KHTML, like Gecko) Chrome/90.0.4430.93 Safari/537.36",WebKit,Chrome,90.0.4430.93,Windows,10.0
148,1,282.27500000502914,q,html-keyboard-response,120,251229,0.0-120.0,"
    <img id = 'img_b1' width = 18% height = 32% style = 'position:absolute;top:10%;left:25%'>
    <img id = 'img_b2' width = 18% height = 32% style = 'position:absolute;top:10%;right:25%'>
    <img id = 'img_b3' width = 18% height = 32% style = 'position:absolute;bottom:10%;left:25%'>
    <img id = 'img_b4' width = 18% height = 32% style = 'position:absolute;bottom:10%;right:25%'>
    <div id = 'cum' style = 'position:absolute;top:5%;right:5%;font-size:calc(18px + 6 * ((100vw - 320px) / 680))'></div>
  ","""","""","""","""","""","""","""","""","""","2021-05-13 19:11:44",223.182.164.48,"Mozilla/5.0 (Windows NT 10.0; Win64; x64) AppleWebKit/537.36 (KHTML, like Gecko) Chrome/90.0.4430.93 Safari/537.36",WebKit,Chrome,90.0.4430.93,Windows,10.0
148,1,null,null,html-keyboard-response,121,252743,0.0-121.0,"
    <img id = 'img_b1' width = 18% height = 32% style = 'position:absolute;top:10%;left:25%'>
    <img id = 'img_b2' width = 18% height = 32% style = 'position:absolute;top:10%;right:25%'>
    <img id = 'img_b3' width = 18% height = 32% style = 'position:absolute;bottom:10%;left:25%'>
    <img id = 'img_b4' width = 18% height = 32% style = 'position:absolute;bottom:10%;right:25%'>
    <div id = 'band_txt'></div>
    <div id = 'cum' style = 'position:absolute;top:5%;right:5%;font-size:calc(18px + 6 * ((100vw - 320px) / 680))'></div>
  ","""","""","""","""","""","""","""","""","""","2021-05-13 19:11:44",223.182.164.48,"Mozilla/5.0 (Windows NT 10.0; Win64; x64) AppleWebKit/537.36 (KHTML, like Gecko) Chrome/90.0.4430.93 Safari/537.36",WebKit,Chrome,90.0.4430.93,Windows,10.0
148,1,null,null,html-keyboard-response,122,253754,0.0-122.0,"<div style=""font-size:60px;"">+</div>","""","""","""","""","""","""","""","""","""","2021-05-13 19:11:44",223.182.164.48,"Mozilla/5.0 (Windows NT 10.0; Win64; x64) AppleWebKit/537.36 (KHTML, like Gecko) Chrome/90.0.4430.93 Safari/537.36",WebKit,Chrome,90.0.4430.93,Windows,10.0
148,1,258.2399999955669,p,html-keyboard-response,123,254012,0.0-123.0,"
    <img id = 'img_b1' width = 18% height = 32% style = 'position:absolute;top:10%;left:25%'>
    <img id = 'img_b2' width = 18% height = 32% style = 'position:absolute;top:10%;right:25%'>
    <img id = 'img_b3' width = 18% height = 32% style = 'position:absolute;bottom:10%;left:25%'>
    <img id = 'img_b4' width = 18% height = 32% style = 'position:absolute;bottom:10%;right:25%'>
    <div id = 'cum' style = 'position:absolute;top:5%;right:5%;font-size:calc(18px + 6 * ((100vw - 320px) / 680))'></div>
  ","""","""","""","""","""","""","""","""","""","2021-05-13 19:11:44",223.182.164.48,"Mozilla/5.0 (Windows NT 10.0; Win64; x64) AppleWebKit/537.36 (KHTML, like Gecko) Chrome/90.0.4430.93 Safari/537.36",WebKit,Chrome,90.0.4430.93,Windows,10.0
148,1,null,null,html-keyboard-response,124,255518,0.0-124.0,"
    <img id = 'img_b1' width = 18% height = 32% style = 'position:absolute;top:10%;left:25%'>
    <img id = 'img_b2' width = 18% height = 32% style = 'position:absolute;top:10%;right:25%'>
    <img id = 'img_b3' width = 18% height = 32% style = 'position:absolute;bottom:10%;left:25%'>
    <img id = 'img_b4' width = 18% height = 32% style = 'position:absolute;bottom:10%;right:25%'>
    <div id = 'band_txt'></div>
    <div id = 'cum' style = 'position:absolute;top:5%;right:5%;font-size:calc(18px + 6 * ((100vw - 320px) / 680))'></div>
  ","""","""","""","""","""","""","""","""","""","2021-05-13 19:11:44",223.182.164.48,"Mozilla/5.0 (Windows NT 10.0; Win64; x64) AppleWebKit/537.36 (KHTML, like Gecko) Chrome/90.0.4430.93 Safari/537.36",WebKit,Chrome,90.0.4430.93,Windows,10.0
148,1,null,null,html-keyboard-response,125,257034,0.0-125.0,"<div style=""font-size:60px;"">+</div>","""","""","""","""","""","""","""","""","""","2021-05-13 19:11:44",223.182.164.48,"Mozilla/5.0 (Windows NT 10.0; Win64; x64) AppleWebKit/537.36 (KHTML, like Gecko) Chrome/90.0.4430.93 Safari/537.36",WebKit,Chrome,90.0.4430.93,Windows,10.0
148,1,251.51999993249774,m,html-keyboard-response,126,257287,0.0-126.0,"
    <img id = 'img_b1' width = 18% height = 32% style = 'position:absolute;top:10%;left:25%'>
    <img id = 'img_b2' width = 18% height = 32% style = 'position:absolute;top:10%;right:25%'>
    <img id = 'img_b3' width = 18% height = 32% style = 'position:absolute;bottom:10%;left:25%'>
    <img id = 'img_b4' width = 18% height = 32% style = 'position:absolute;bottom:10%;right:25%'>
    <div id = 'cum' style = 'position:absolute;top:5%;right:5%;font-size:calc(18px + 6 * ((100vw - 320px) / 680))'></div>
  ","""","""","""","""","""","""","""","""","""","2021-05-13 19:11:44",223.182.164.48,"Mozilla/5.0 (Windows NT 10.0; Win64; x64) AppleWebKit/537.36 (KHTML, like Gecko) Chrome/90.0.4430.93 Safari/537.36",WebKit,Chrome,90.0.4430.93,Windows,10.0
148,1,null,null,html-keyboard-response,127,258800,0.0-127.0,"
    <img id = 'img_b1' width = 18% height = 32% style = 'position:absolute;top:10%;left:25%'>
    <img id = 'img_b2' width = 18% height = 32% style = 'position:absolute;top:10%;right:25%'>
    <img id = 'img_b3' width = 18% height = 32% style = 'position:absolute;bottom:10%;left:25%'>
    <img id = 'img_b4' width = 18% height = 32% style = 'position:absolute;bottom:10%;right:25%'>
    <div id = 'band_txt'></div>
    <div id = 'cum' style = 'position:absolute;top:5%;right:5%;font-size:calc(18px + 6 * ((100vw - 320px) / 680))'></div>
  ","""","""","""","""","""","""","""","""","""","2021-05-13 19:11:44",223.182.164.48,"Mozilla/5.0 (Windows NT 10.0; Win64; x64) AppleWebKit/537.36 (KHTML, like Gecko) Chrome/90.0.4430.93 Safari/537.36",WebKit,Chrome,90.0.4430.93,Windows,10.0
148,1,null,null,html-keyboard-response,128,260559,0.0-128.0,"<div style=""font-size:60px;"">+</div>","""","""","""","""","""","""","""","""","""","2021-05-13 19:11:44",223.182.164.48,"Mozilla/5.0 (Windows NT 10.0; Win64; x64) AppleWebKit/537.36 (KHTML, like Gecko) Chrome/90.0.4430.93 Safari/537.36",WebKit,Chrome,90.0.4430.93,Windows,10.0
148,1,285.4899999219924,p,html-keyboard-response,129,260845,0.0-129.0,"
    <img id = 'img_b1' width = 18% height = 32% style = 'position:absolute;top:10%;left:25%'>
    <img id = 'img_b2' width = 18% height = 32% style = 'position:absolute;top:10%;right:25%'>
    <img id = 'img_b3' width = 18% height = 32% style = 'position:absolute;bottom:10%;left:25%'>
    <img id = 'img_b4' width = 18% height = 32% style = 'position:absolute;bottom:10%;right:25%'>
    <div id = 'cum' style = 'position:absolute;top:5%;right:5%;font-size:calc(18px + 6 * ((100vw - 320px) / 680))'></div>
  ","""","""","""","""","""","""","""","""","""","2021-05-13 19:11:44",223.182.164.48,"Mozilla/5.0 (Windows NT 10.0; Win64; x64) AppleWebKit/537.36 (KHTML, like Gecko) Chrome/90.0.4430.93 Safari/537.36",WebKit,Chrome,90.0.4430.93,Windows,10.0
148,1,null,null,html-keyboard-response,130,262361,0.0-130.0,"
    <img id = 'img_b1' width = 18% height = 32% style = 'position:absolute;top:10%;left:25%'>
    <img id = 'img_b2' width = 18% height = 32% style = 'position:absolute;top:10%;right:25%'>
    <img id = 'img_b3' width = 18% height = 32% style = 'position:absolute;bottom:10%;left:25%'>
    <img id = 'img_b4' width = 18% height = 32% style = 'position:absolute;bottom:10%;right:25%'>
    <div id = 'band_txt'></div>
    <div id = 'cum' style = 'position:absolute;top:5%;right:5%;font-size:calc(18px + 6 * ((100vw - 320px) / 680))'></div>
  ","""","""","""","""","""","""","""","""","""","2021-05-13 19:11:44",223.182.164.48,"Mozilla/5.0 (Windows NT 10.0; Win64; x64) AppleWebKit/537.36 (KHTML, like Gecko) Chrome/90.0.4430.93 Safari/537.36",WebKit,Chrome,90.0.4430.93,Windows,10.0
148,1,null,null,html-keyboard-response,131,263369,0.0-131.0,"<div style=""font-size:60px;"">+</div>","""","""","""","""","""","""","""","""","""","2021-05-13 19:11:44",223.182.164.48,"Mozilla/5.0 (Windows NT 10.0; Win64; x64) AppleWebKit/537.36 (KHTML, like Gecko) Chrome/90.0.4430.93 Safari/537.36",WebKit,Chrome,90.0.4430.93,Windows,10.0
148,1,291.90499999094754,m,html-keyboard-response,132,263661,0.0-132.0,"
    <img id = 'img_b1' width = 18% height = 32% style = 'position:absolute;top:10%;left:25%'>
    <img id = 'img_b2' width = 18% height = 32% style = 'position:absolute;top:10%;right:25%'>
    <img id = 'img_b3' width = 18% height = 32% style = 'position:absolute;bottom:10%;left:25%'>
    <img id = 'img_b4' width = 18% height = 32% style = 'position:absolute;bottom:10%;right:25%'>
    <div id = 'cum' style = 'position:absolute;top:5%;right:5%;font-size:calc(18px + 6 * ((100vw - 320px) / 680))'></div>
  ","""","""","""","""","""","""","""","""","""","2021-05-13 19:11:44",223.182.164.48,"Mozilla/5.0 (Windows NT 10.0; Win64; x64) AppleWebKit/537.36 (KHTML, like Gecko) Chrome/90.0.4430.93 Safari/537.36",WebKit,Chrome,90.0.4430.93,Windows,10.0
148,1,null,null,html-keyboard-response,133,265166,0.0-133.0,"
    <img id = 'img_b1' width = 18% height = 32% style = 'position:absolute;top:10%;left:25%'>
    <img id = 'img_b2' width = 18% height = 32% style = 'position:absolute;top:10%;right:25%'>
    <img id = 'img_b3' width = 18% height = 32% style = 'position:absolute;bottom:10%;left:25%'>
    <img id = 'img_b4' width = 18% height = 32% style = 'position:absolute;bottom:10%;right:25%'>
    <div id = 'band_txt'></div>
    <div id = 'cum' style = 'position:absolute;top:5%;right:5%;font-size:calc(18px + 6 * ((100vw - 320px) / 680))'></div>
  ","""","""","""","""","""","""","""","""","""","2021-05-13 19:11:44",223.182.164.48,"Mozilla/5.0 (Windows NT 10.0; Win64; x64) AppleWebKit/537.36 (KHTML, like Gecko) Chrome/90.0.4430.93 Safari/537.36",WebKit,Chrome,90.0.4430.93,Windows,10.0
148,1,null,null,html-keyboard-response,134,265921,0.0-134.0,"<div style=""font-size:60px;"">+</div>","""","""","""","""","""","""","""","""","""","2021-05-13 19:11:44",223.182.164.48,"Mozilla/5.0 (Windows NT 10.0; Win64; x64) AppleWebKit/537.36 (KHTML, like Gecko) Chrome/90.0.4430.93 Safari/537.36",WebKit,Chrome,90.0.4430.93,Windows,10.0
148,1,305.54500001017004,p,html-keyboard-response,135,266227,0.0-135.0,"
    <img id = 'img_b1' width = 18% height = 32% style = 'position:absolute;top:10%;left:25%'>
    <img id = 'img_b2' width = 18% height = 32% style = 'position:absolute;top:10%;right:25%'>
    <img id = 'img_b3' width = 18% height = 32% style = 'position:absolute;bottom:10%;left:25%'>
    <img id = 'img_b4' width = 18% height = 32% style = 'position:absolute;bottom:10%;right:25%'>
    <div id = 'cum' style = 'position:absolute;top:5%;right:5%;font-size:calc(18px + 6 * ((100vw - 320px) / 680))'></div>
  ","""","""","""","""","""","""","""","""","""","2021-05-13 19:11:44",223.182.164.48,"Mozilla/5.0 (Windows NT 10.0; Win64; x64) AppleWebKit/537.36 (KHTML, like Gecko) Chrome/90.0.4430.93 Safari/537.36",WebKit,Chrome,90.0.4430.93,Windows,10.0
148,1,null,null,html-keyboard-response,136,267735,0.0-136.0,"
    <img id = 'img_b1' width = 18% height = 32% style = 'position:absolute;top:10%;left:25%'>
    <img id = 'img_b2' width = 18% height = 32% style = 'position:absolute;top:10%;right:25%'>
    <img id = 'img_b3' width = 18% height = 32% style = 'position:absolute;bottom:10%;left:25%'>
    <img id = 'img_b4' width = 18% height = 32% style = 'position:absolute;bottom:10%;right:25%'>
    <div id = 'band_txt'></div>
    <div id = 'cum' style = 'position:absolute;top:5%;right:5%;font-size:calc(18px + 6 * ((100vw - 320px) / 680))'></div>
  ","""","""","""","""","""","""","""","""","""","2021-05-13 19:11:44",223.182.164.48,"Mozilla/5.0 (Windows NT 10.0; Win64; x64) AppleWebKit/537.36 (KHTML, like Gecko) Chrome/90.0.4430.93 Safari/537.36",WebKit,Chrome,90.0.4430.93,Windows,10.0
148,1,null,null,html-keyboard-response,137,268993,0.0-137.0,"<div style=""font-size:60px;"">+</div>","""","""","""","""","""","""","""","""","""","2021-05-13 19:11:44",223.182.164.48,"Mozilla/5.0 (Windows NT 10.0; Win64; x64) AppleWebKit/537.36 (KHTML, like Gecko) Chrome/90.0.4430.93 Safari/537.36",WebKit,Chrome,90.0.4430.93,Windows,10.0
148,1,107.16000001411885,m,html-keyboard-response,138,269101,0.0-138.0,"
    <img id = 'img_b1' width = 18% height = 32% style = 'position:absolute;top:10%;left:25%'>
    <img id = 'img_b2' width = 18% height = 32% style = 'position:absolute;top:10%;right:25%'>
    <img id = 'img_b3' width = 18% height = 32% style = 'position:absolute;bottom:10%;left:25%'>
    <img id = 'img_b4' width = 18% height = 32% style = 'position:absolute;bottom:10%;right:25%'>
    <div id = 'cum' style = 'position:absolute;top:5%;right:5%;font-size:calc(18px + 6 * ((100vw - 320px) / 680))'></div>
  ","""","""","""","""","""","""","""","""","""","2021-05-13 19:11:44",223.182.164.48,"Mozilla/5.0 (Windows NT 10.0; Win64; x64) AppleWebKit/537.36 (KHTML, like Gecko) Chrome/90.0.4430.93 Safari/537.36",WebKit,Chrome,90.0.4430.93,Windows,10.0
148,1,null,null,html-keyboard-response,139,270603,0.0-139.0,"
    <img id = 'img_b1' width = 18% height = 32% style = 'position:absolute;top:10%;left:25%'>
    <img id = 'img_b2' width = 18% height = 32% style = 'position:absolute;top:10%;right:25%'>
    <img id = 'img_b3' width = 18% height = 32% style = 'position:absolute;bottom:10%;left:25%'>
    <img id = 'img_b4' width = 18% height = 32% style = 'position:absolute;bottom:10%;right:25%'>
    <div id = 'band_txt'></div>
    <div id = 'cum' style = 'position:absolute;top:5%;right:5%;font-size:calc(18px + 6 * ((100vw - 320px) / 680))'></div>
  ","""","""","""","""","""","""","""","""","""","2021-05-13 19:11:44",223.182.164.48,"Mozilla/5.0 (Windows NT 10.0; Win64; x64) AppleWebKit/537.36 (KHTML, like Gecko) Chrome/90.0.4430.93 Safari/537.36",WebKit,Chrome,90.0.4430.93,Windows,10.0
148,1,null,null,html-keyboard-response,140,271613,0.0-140.0,"<div style=""font-size:60px;"">+</div>","""","""","""","""","""","""","""","""","""","2021-05-13 19:11:44",223.182.164.48,"Mozilla/5.0 (Windows NT 10.0; Win64; x64) AppleWebKit/537.36 (KHTML, like Gecko) Chrome/90.0.4430.93 Safari/537.36",WebKit,Chrome,90.0.4430.93,Windows,10.0
148,1,240.51999999210238,p,html-keyboard-response,141,271854,0.0-141.0,"
    <img id = 'img_b1' width = 18% height = 32% style = 'position:absolute;top:10%;left:25%'>
    <img id = 'img_b2' width = 18% height = 32% style = 'position:absolute;top:10%;right:25%'>
    <img id = 'img_b3' width = 18% height = 32% style = 'position:absolute;bottom:10%;left:25%'>
    <img id = 'img_b4' width = 18% height = 32% style = 'position:absolute;bottom:10%;right:25%'>
    <div id = 'cum' style = 'position:absolute;top:5%;right:5%;font-size:calc(18px + 6 * ((100vw - 320px) / 680))'></div>
  ","""","""","""","""","""","""","""","""","""","2021-05-13 19:11:44",223.182.164.48,"Mozilla/5.0 (Windows NT 10.0; Win64; x64) AppleWebKit/537.36 (KHTML, like Gecko) Chrome/90.0.4430.93 Safari/537.36",WebKit,Chrome,90.0.4430.93,Windows,10.0
148,1,null,null,html-keyboard-response,142,273368,0.0-142.0,"
    <img id = 'img_b1' width = 18% height = 32% style = 'position:absolute;top:10%;left:25%'>
    <img id = 'img_b2' width = 18% height = 32% style = 'position:absolute;top:10%;right:25%'>
    <img id = 'img_b3' width = 18% height = 32% style = 'position:absolute;bottom:10%;left:25%'>
    <img id = 'img_b4' width = 18% height = 32% style = 'position:absolute;bottom:10%;right:25%'>
    <div id = 'band_txt'></div>
    <div id = 'cum' style = 'position:absolute;top:5%;right:5%;font-size:calc(18px + 6 * ((100vw - 320px) / 680))'></div>
  ","""","""","""","""","""","""","""","""","""","2021-05-13 19:11:44",223.182.164.48,"Mozilla/5.0 (Windows NT 10.0; Win64; x64) AppleWebKit/537.36 (KHTML, like Gecko) Chrome/90.0.4430.93 Safari/537.36",WebKit,Chrome,90.0.4430.93,Windows,10.0
148,1,null,null,html-keyboard-response,143,274877,0.0-143.0,"<div style=""font-size:60px;"">+</div>","""","""","""","""","""","""","""","""","""","2021-05-13 19:11:44",223.182.164.48,"Mozilla/5.0 (Windows NT 10.0; Win64; x64) AppleWebKit/537.36 (KHTML, like Gecko) Chrome/90.0.4430.93 Safari/537.36",WebKit,Chrome,90.0.4430.93,Windows,10.0
148,1,289.0399999450892,m,html-keyboard-response,144,275167,0.0-144.0,"
    <img id = 'img_b1' width = 18% height = 32% style = 'position:absolute;top:10%;left:25%'>
    <img id = 'img_b2' width = 18% height = 32% style = 'position:absolute;top:10%;right:25%'>
    <img id = 'img_b3' width = 18% height = 32% style = 'position:absolute;bottom:10%;left:25%'>
    <img id = 'img_b4' width = 18% height = 32% style = 'position:absolute;bottom:10%;right:25%'>
    <div id = 'cum' style = 'position:absolute;top:5%;right:5%;font-size:calc(18px + 6 * ((100vw - 320px) / 680))'></div>
  ","""","""","""","""","""","""","""","""","""","2021-05-13 19:11:44",223.182.164.48,"Mozilla/5.0 (Windows NT 10.0; Win64; x64) AppleWebKit/537.36 (KHTML, like Gecko) Chrome/90.0.4430.93 Safari/537.36",WebKit,Chrome,90.0.4430.93,Windows,10.0
148,1,null,null,html-keyboard-response,145,276669,0.0-145.0,"
    <img id = 'img_b1' width = 18% height = 32% style = 'position:absolute;top:10%;left:25%'>
    <img id = 'img_b2' width = 18% height = 32% style = 'position:absolute;top:10%;right:25%'>
    <img id = 'img_b3' width = 18% height = 32% style = 'position:absolute;bottom:10%;left:25%'>
    <img id = 'img_b4' width = 18% height = 32% style = 'position:absolute;bottom:10%;right:25%'>
    <div id = 'band_txt'></div>
    <div id = 'cum' style = 'position:absolute;top:5%;right:5%;font-size:calc(18px + 6 * ((100vw - 320px) / 680))'></div>
  ","""","""","""","""","""","""","""","""","""","2021-05-13 19:11:44",223.182.164.48,"Mozilla/5.0 (Windows NT 10.0; Win64; x64) AppleWebKit/537.36 (KHTML, like Gecko) Chrome/90.0.4430.93 Safari/537.36",WebKit,Chrome,90.0.4430.93,Windows,10.0
148,1,null,null,html-keyboard-response,146,277423,0.0-146.0,"<div style=""font-size:60px;"">+</div>","""","""","""","""","""","""","""","""","""","2021-05-13 19:11:44",223.182.164.48,"Mozilla/5.0 (Windows NT 10.0; Win64; x64) AppleWebKit/537.36 (KHTML, like Gecko) Chrome/90.0.4430.93 Safari/537.36",WebKit,Chrome,90.0.4430.93,Windows,10.0
148,1,271.1950000375509,m,html-keyboard-response,147,277694,0.0-147.0,"
    <img id = 'img_b1' width = 18% height = 32% style = 'position:absolute;top:10%;left:25%'>
    <img id = 'img_b2' width = 18% height = 32% style = 'position:absolute;top:10%;right:25%'>
    <img id = 'img_b3' width = 18% height = 32% style = 'position:absolute;bottom:10%;left:25%'>
    <img id = 'img_b4' width = 18% height = 32% style = 'position:absolute;bottom:10%;right:25%'>
    <div id = 'cum' style = 'position:absolute;top:5%;right:5%;font-size:calc(18px + 6 * ((100vw - 320px) / 680))'></div>
  ","""","""","""","""","""","""","""","""","""","2021-05-13 19:11:44",223.182.164.48,"Mozilla/5.0 (Windows NT 10.0; Win64; x64) AppleWebKit/537.36 (KHTML, like Gecko) Chrome/90.0.4430.93 Safari/537.36",WebKit,Chrome,90.0.4430.93,Windows,10.0
148,1,null,null,html-keyboard-response,148,279204,0.0-148.0,"
    <img id = 'img_b1' width = 18% height = 32% style = 'position:absolute;top:10%;left:25%'>
    <img id = 'img_b2' width = 18% height = 32% style = 'position:absolute;top:10%;right:25%'>
    <img id = 'img_b3' width = 18% height = 32% style = 'position:absolute;bottom:10%;left:25%'>
    <img id = 'img_b4' width = 18% height = 32% style = 'position:absolute;bottom:10%;right:25%'>
    <div id = 'band_txt'></div>
    <div id = 'cum' style = 'position:absolute;top:5%;right:5%;font-size:calc(18px + 6 * ((100vw - 320px) / 680))'></div>
  ","""","""","""","""","""","""","""","""","""","2021-05-13 19:11:44",223.182.164.48,"Mozilla/5.0 (Windows NT 10.0; Win64; x64) AppleWebKit/537.36 (KHTML, like Gecko) Chrome/90.0.4430.93 Safari/537.36",WebKit,Chrome,90.0.4430.93,Windows,10.0
