run_id,condition,rt,response,trial_type,trial_index,time_elapsed,internal_node_id,fbclid,stimulus,trend,stable,num,resp_map,success,timeout,failed_images,failed_audio,failed_video,recorded_at,ip,user_agent,device,browser,browser_version,platform,platform_version
178,1,8917.559999972582,"{""age"":""21"",""sex"":""male"",""hand"":""right""}",survey-text,0,8962,0.0-0.0,IwAR2P93ukWaKHwC_Dv2xM2_QyXpS_Zdem4Mu0vLX7sSNZl_z6qElJ0VK5qAo,"""","""","""","""","""","""","""","""","""","""","2021-05-16 20:36:12",27.63.157.77,"Mozilla/5.0 (Windows NT 10.0; Win64; x64) AppleWebKit/537.36 (KHTML, like Gecko) Chrome/90.0.4430.212 Safari/537.36",WebKit,Chrome,90.0.4430.212,Windows,10.0
178,1,3861.2200000789016,enter,html-keyboard-response,1,12828,0.0-1.0,IwAR2P93ukWaKHwC_Dv2xM2_QyXpS_Zdem4Mu0vLX7sSNZl_z6qElJ0VK5qAo,"Hi! Thanks for volunteering for this study. It is part of the project component for the course, CS786A - Computational Cognitive Science, at IIT Kanpur.<br> You will now play a decision-making game lasting for 15-20 minutes. In case of any queries, please write to prathams@iitk.ac.in or call at 9760066853.<br><br>Press any key to continue!",0,1,1,"[3,0,2,1]","""","""","""","""","""","2021-05-16 20:36:12",27.63.157.77,"Mozilla/5.0 (Windows NT 10.0; Win64; x64) AppleWebKit/537.36 (KHTML, like Gecko) Chrome/90.0.4430.212 Safari/537.36",WebKit,Chrome,90.0.4430.212,Windows,10.0
178,1,11986.490000039339,enter,html-keyboard-response,2,24816,0.0-2.0,IwAR2P93ukWaKHwC_Dv2xM2_QyXpS_Zdem4Mu0vLX7sSNZl_z6qElJ0VK5qAo,"Imagine you are in a casino, and you go to a room with four slot machines. On pulling a machine, it yeilds a reward. At any point, some machines may be better than the others, but the amount they give varies. Your aim is to maximize your cumulative reward by the end of this experiment. <br>Machines are pulled by pressing 'Q', 'P', 'M' or 'Z' on the keyboard. These keys are arranged in the same way on the keyboard as the slot machines are on the screen.<br>Press any button to see an illustration of the trial screen and the keyboard mapping!","""","""","""","""","""","""","""","""","""","2021-05-16 20:36:12",27.63.157.77,"Mozilla/5.0 (Windows NT 10.0; Win64; x64) AppleWebKit/537.36 (KHTML, like Gecko) Chrome/90.0.4430.212 Safari/537.36",WebKit,Chrome,90.0.4430.212,Windows,10.0
178,1,"""","""",preload,3,26799,0.0-3.0,IwAR2P93ukWaKHwC_Dv2xM2_QyXpS_Zdem4Mu0vLX7sSNZl_z6qElJ0VK5qAo,"""","""","""","""","""",true,false,[],[],[],"2021-05-16 20:36:12",27.63.157.77,"Mozilla/5.0 (Windows NT 10.0; Win64; x64) AppleWebKit/537.36 (KHTML, like Gecko) Chrome/90.0.4430.212 Safari/537.36",WebKit,Chrome,90.0.4430.212,Windows,10.0
178,1,4396.254999795929,enter,html-keyboard-response,4,31197,0.0-4.0,IwAR2P93ukWaKHwC_Dv2xM2_QyXpS_Zdem4Mu0vLX7sSNZl_z6qElJ0VK5qAo,"
    <img src = 'img/b1.png' width = 18% height = 32% style = 'position:absolute;top:10%;left:25%'>
    <img src = 'img/b2.png' width = 18% height = 32% style = 'position:absolute;top:10%;right:25%'>
    <img src = 'img/b3.png' width = 18% height = 32% style = 'position:absolute;bottom:10%;left:25%'>
    <img src = 'img/b4.png' width = 18% height = 32% style = 'position:absolute;bottom:10%;right:25%'>
    <div id = 'cum' style = 'position:absolute;top:5%;right:5%;font-size:calc(18px + 6 * ((100vw - 320px) / 680))'>Total</div>
    <div style = 'position:absolute;top:20%;left:30%;color:black;font-size:calc(18px + 6 * ((100vw - 320px) / 680))'>Q</div>
    <div style = 'position:absolute;top:20%;right:35%;color:black;font-size:calc(18px + 6 * ((100vw - 320px) / 680))'>P</div>
    <div style = 'position:absolute;bottom:26%;right:35%;color:black;font-size:calc(18px + 6 * ((100vw - 320px) / 680))'>M</div>
    <div style = 'position:absolute;bottom:26%;left:30%;color:black;font-size:calc(18px + 6 * ((100vw - 320px) / 680))'>Z</div>
    <div style = 'position:absolute;bottom:5%;left:30%'>Press any button to proceed to the experiment!</div>
  ","""","""","""","""","""","""","""","""","""","2021-05-16 20:36:12",27.63.157.77,"Mozilla/5.0 (Windows NT 10.0; Win64; x64) AppleWebKit/537.36 (KHTML, like Gecko) Chrome/90.0.4430.212 Safari/537.36",WebKit,Chrome,90.0.4430.212,Windows,10.0
178,1,null,null,html-keyboard-response,5,31961,0.0-5.0,IwAR2P93ukWaKHwC_Dv2xM2_QyXpS_Zdem4Mu0vLX7sSNZl_z6qElJ0VK5qAo,"<div style=""font-size:60px;"">+</div>","""","""","""","""","""","""","""","""","""","2021-05-16 20:36:12",27.63.157.77,"Mozilla/5.0 (Windows NT 10.0; Win64; x64) AppleWebKit/537.36 (KHTML, like Gecko) Chrome/90.0.4430.212 Safari/537.36",WebKit,Chrome,90.0.4430.212,Windows,10.0
178,1,1413.1950000301003,q,html-keyboard-response,6,33377,0.0-6.0,IwAR2P93ukWaKHwC_Dv2xM2_QyXpS_Zdem4Mu0vLX7sSNZl_z6qElJ0VK5qAo,"
    <img id = 'img_b1' width = 18% height = 32% style = 'position:absolute;top:10%;left:25%'>
    <img id = 'img_b2' width = 18% height = 32% style = 'position:absolute;top:10%;right:25%'>
    <img id = 'img_b3' width = 18% height = 32% style = 'position:absolute;bottom:10%;left:25%'>
    <img id = 'img_b4' width = 18% height = 32% style = 'position:absolute;bottom:10%;right:25%'>
    <div id = 'cum' style = 'position:absolute;top:5%;right:5%;font-size:calc(18px + 6 * ((100vw - 320px) / 680))'></div>
  ","""","""","""","""","""","""","""","""","""","2021-05-16 20:36:12",27.63.157.77,"Mozilla/5.0 (Windows NT 10.0; Win64; x64) AppleWebKit/537.36 (KHTML, like Gecko) Chrome/90.0.4430.212 Safari/537.36",WebKit,Chrome,90.0.4430.212,Windows,10.0
178,1,null,null,html-keyboard-response,7,34892,0.0-7.0,IwAR2P93ukWaKHwC_Dv2xM2_QyXpS_Zdem4Mu0vLX7sSNZl_z6qElJ0VK5qAo,"
    <img id = 'img_b1' width = 18% height = 32% style = 'position:absolute;top:10%;left:25%'>
    <img id = 'img_b2' width = 18% height = 32% style = 'position:absolute;top:10%;right:25%'>
    <img id = 'img_b3' width = 18% height = 32% style = 'position:absolute;bottom:10%;left:25%'>
    <img id = 'img_b4' width = 18% height = 32% style = 'position:absolute;bottom:10%;right:25%'>
    <div id = 'band_txt'></div>
    <div id = 'cum' style = 'position:absolute;top:5%;right:5%;font-size:calc(18px + 6 * ((100vw - 320px) / 680))'></div>
  ","""","""","""","""","""","""","""","""","""","2021-05-16 20:36:12",27.63.157.77,"Mozilla/5.0 (Windows NT 10.0; Win64; x64) AppleWebKit/537.36 (KHTML, like Gecko) Chrome/90.0.4430.212 Safari/537.36",WebKit,Chrome,90.0.4430.212,Windows,10.0
178,1,null,null,html-keyboard-response,8,36154,0.0-8.0,IwAR2P93ukWaKHwC_Dv2xM2_QyXpS_Zdem4Mu0vLX7sSNZl_z6qElJ0VK5qAo,"<div style=""font-size:60px;"">+</div>","""","""","""","""","""","""","""","""","""","2021-05-16 20:36:12",27.63.157.77,"Mozilla/5.0 (Windows NT 10.0; Win64; x64) AppleWebKit/537.36 (KHTML, like Gecko) Chrome/90.0.4430.212 Safari/537.36",WebKit,Chrome,90.0.4430.212,Windows,10.0
178,1,559.3250000383705,p,html-keyboard-response,9,36715,0.0-9.0,IwAR2P93ukWaKHwC_Dv2xM2_QyXpS_Zdem4Mu0vLX7sSNZl_z6qElJ0VK5qAo,"
    <img id = 'img_b1' width = 18% height = 32% style = 'position:absolute;top:10%;left:25%'>
    <img id = 'img_b2' width = 18% height = 32% style = 'position:absolute;top:10%;right:25%'>
    <img id = 'img_b3' width = 18% height = 32% style = 'position:absolute;bottom:10%;left:25%'>
    <img id = 'img_b4' width = 18% height = 32% style = 'position:absolute;bottom:10%;right:25%'>
    <div id = 'cum' style = 'position:absolute;top:5%;right:5%;font-size:calc(18px + 6 * ((100vw - 320px) / 680))'></div>
  ","""","""","""","""","""","""","""","""","""","2021-05-16 20:36:12",27.63.157.77,"Mozilla/5.0 (Windows NT 10.0; Win64; x64) AppleWebKit/537.36 (KHTML, like Gecko) Chrome/90.0.4430.212 Safari/537.36",WebKit,Chrome,90.0.4430.212,Windows,10.0
178,1,null,null,html-keyboard-response,10,38229,0.0-10.0,IwAR2P93ukWaKHwC_Dv2xM2_QyXpS_Zdem4Mu0vLX7sSNZl_z6qElJ0VK5qAo,"
    <img id = 'img_b1' width = 18% height = 32% style = 'position:absolute;top:10%;left:25%'>
    <img id = 'img_b2' width = 18% height = 32% style = 'position:absolute;top:10%;right:25%'>
    <img id = 'img_b3' width = 18% height = 32% style = 'position:absolute;bottom:10%;left:25%'>
    <img id = 'img_b4' width = 18% height = 32% style = 'position:absolute;bottom:10%;right:25%'>
    <div id = 'band_txt'></div>
    <div id = 'cum' style = 'position:absolute;top:5%;right:5%;font-size:calc(18px + 6 * ((100vw - 320px) / 680))'></div>
  ","""","""","""","""","""","""","""","""","""","2021-05-16 20:36:12",27.63.157.77,"Mozilla/5.0 (Windows NT 10.0; Win64; x64) AppleWebKit/537.36 (KHTML, like Gecko) Chrome/90.0.4430.212 Safari/537.36",WebKit,Chrome,90.0.4430.212,Windows,10.0
178,1,null,null,html-keyboard-response,11,39732,0.0-11.0,IwAR2P93ukWaKHwC_Dv2xM2_QyXpS_Zdem4Mu0vLX7sSNZl_z6qElJ0VK5qAo,"<div style=""font-size:60px;"">+</div>","""","""","""","""","""","""","""","""","""","2021-05-16 20:36:12",27.63.157.77,"Mozilla/5.0 (Windows NT 10.0; Win64; x64) AppleWebKit/537.36 (KHTML, like Gecko) Chrome/90.0.4430.212 Safari/537.36",WebKit,Chrome,90.0.4430.212,Windows,10.0
178,1,723.2000001240522,m,html-keyboard-response,12,40458,0.0-12.0,IwAR2P93ukWaKHwC_Dv2xM2_QyXpS_Zdem4Mu0vLX7sSNZl_z6qElJ0VK5qAo,"
    <img id = 'img_b1' width = 18% height = 32% style = 'position:absolute;top:10%;left:25%'>
    <img id = 'img_b2' width = 18% height = 32% style = 'position:absolute;top:10%;right:25%'>
    <img id = 'img_b3' width = 18% height = 32% style = 'position:absolute;bottom:10%;left:25%'>
    <img id = 'img_b4' width = 18% height = 32% style = 'position:absolute;bottom:10%;right:25%'>
    <div id = 'cum' style = 'position:absolute;top:5%;right:5%;font-size:calc(18px + 6 * ((100vw - 320px) / 680))'></div>
  ","""","""","""","""","""","""","""","""","""","2021-05-16 20:36:12",27.63.157.77,"Mozilla/5.0 (Windows NT 10.0; Win64; x64) AppleWebKit/537.36 (KHTML, like Gecko) Chrome/90.0.4430.212 Safari/537.36",WebKit,Chrome,90.0.4430.212,Windows,10.0
178,1,null,null,html-keyboard-response,13,41970,0.0-13.0,IwAR2P93ukWaKHwC_Dv2xM2_QyXpS_Zdem4Mu0vLX7sSNZl_z6qElJ0VK5qAo,"
    <img id = 'img_b1' width = 18% height = 32% style = 'position:absolute;top:10%;left:25%'>
    <img id = 'img_b2' width = 18% height = 32% style = 'position:absolute;top:10%;right:25%'>
    <img id = 'img_b3' width = 18% height = 32% style = 'position:absolute;bottom:10%;left:25%'>
    <img id = 'img_b4' width = 18% height = 32% style = 'position:absolute;bottom:10%;right:25%'>
    <div id = 'band_txt'></div>
    <div id = 'cum' style = 'position:absolute;top:5%;right:5%;font-size:calc(18px + 6 * ((100vw - 320px) / 680))'></div>
  ","""","""","""","""","""","""","""","""","""","2021-05-16 20:36:12",27.63.157.77,"Mozilla/5.0 (Windows NT 10.0; Win64; x64) AppleWebKit/537.36 (KHTML, like Gecko) Chrome/90.0.4430.212 Safari/537.36",WebKit,Chrome,90.0.4430.212,Windows,10.0
178,1,null,null,html-keyboard-response,14,42980,0.0-14.0,IwAR2P93ukWaKHwC_Dv2xM2_QyXpS_Zdem4Mu0vLX7sSNZl_z6qElJ0VK5qAo,"<div style=""font-size:60px;"">+</div>","""","""","""","""","""","""","""","""","""","2021-05-16 20:36:12",27.63.157.77,"Mozilla/5.0 (Windows NT 10.0; Win64; x64) AppleWebKit/537.36 (KHTML, like Gecko) Chrome/90.0.4430.212 Safari/537.36",WebKit,Chrome,90.0.4430.212,Windows,10.0
178,1,379.9499999731779,z,html-keyboard-response,15,43365,0.0-15.0,IwAR2P93ukWaKHwC_Dv2xM2_QyXpS_Zdem4Mu0vLX7sSNZl_z6qElJ0VK5qAo,"
    <img id = 'img_b1' width = 18% height = 32% style = 'position:absolute;top:10%;left:25%'>
    <img id = 'img_b2' width = 18% height = 32% style = 'position:absolute;top:10%;right:25%'>
    <img id = 'img_b3' width = 18% height = 32% style = 'position:absolute;bottom:10%;left:25%'>
    <img id = 'img_b4' width = 18% height = 32% style = 'position:absolute;bottom:10%;right:25%'>
    <div id = 'cum' style = 'position:absolute;top:5%;right:5%;font-size:calc(18px + 6 * ((100vw - 320px) / 680))'></div>
  ","""","""","""","""","""","""","""","""","""","2021-05-16 20:36:12",27.63.157.77,"Mozilla/5.0 (Windows NT 10.0; Win64; x64) AppleWebKit/537.36 (KHTML, like Gecko) Chrome/90.0.4430.212 Safari/537.36",WebKit,Chrome,90.0.4430.212,Windows,10.0
178,1,null,null,html-keyboard-response,16,44870,0.0-16.0,IwAR2P93ukWaKHwC_Dv2xM2_QyXpS_Zdem4Mu0vLX7sSNZl_z6qElJ0VK5qAo,"
    <img id = 'img_b1' width = 18% height = 32% style = 'position:absolute;top:10%;left:25%'>
    <img id = 'img_b2' width = 18% height = 32% style = 'position:absolute;top:10%;right:25%'>
    <img id = 'img_b3' width = 18% height = 32% style = 'position:absolute;bottom:10%;left:25%'>
    <img id = 'img_b4' width = 18% height = 32% style = 'position:absolute;bottom:10%;right:25%'>
    <div id = 'band_txt'></div>
    <div id = 'cum' style = 'position:absolute;top:5%;right:5%;font-size:calc(18px + 6 * ((100vw - 320px) / 680))'></div>
  ","""","""","""","""","""","""","""","""","""","2021-05-16 20:36:12",27.63.157.77,"Mozilla/5.0 (Windows NT 10.0; Win64; x64) AppleWebKit/537.36 (KHTML, like Gecko) Chrome/90.0.4430.212 Safari/537.36",WebKit,Chrome,90.0.4430.212,Windows,10.0
178,1,null,null,html-keyboard-response,17,45878,0.0-17.0,IwAR2P93ukWaKHwC_Dv2xM2_QyXpS_Zdem4Mu0vLX7sSNZl_z6qElJ0VK5qAo,"<div style=""font-size:60px;"">+</div>","""","""","""","""","""","""","""","""","""","2021-05-16 20:36:12",27.63.157.77,"Mozilla/5.0 (Windows NT 10.0; Win64; x64) AppleWebKit/537.36 (KHTML, like Gecko) Chrome/90.0.4430.212 Safari/537.36",WebKit,Chrome,90.0.4430.212,Windows,10.0
178,1,443.50000005215406,m,html-keyboard-response,18,46324,0.0-18.0,IwAR2P93ukWaKHwC_Dv2xM2_QyXpS_Zdem4Mu0vLX7sSNZl_z6qElJ0VK5qAo,"
    <img id = 'img_b1' width = 18% height = 32% style = 'position:absolute;top:10%;left:25%'>
    <img id = 'img_b2' width = 18% height = 32% style = 'position:absolute;top:10%;right:25%'>
    <img id = 'img_b3' width = 18% height = 32% style = 'position:absolute;bottom:10%;left:25%'>
    <img id = 'img_b4' width = 18% height = 32% style = 'position:absolute;bottom:10%;right:25%'>
    <div id = 'cum' style = 'position:absolute;top:5%;right:5%;font-size:calc(18px + 6 * ((100vw - 320px) / 680))'></div>
  ","""","""","""","""","""","""","""","""","""","2021-05-16 20:36:12",27.63.157.77,"Mozilla/5.0 (Windows NT 10.0; Win64; x64) AppleWebKit/537.36 (KHTML, like Gecko) Chrome/90.0.4430.212 Safari/537.36",WebKit,Chrome,90.0.4430.212,Windows,10.0
178,1,null,null,html-keyboard-response,19,47831,0.0-19.0,IwAR2P93ukWaKHwC_Dv2xM2_QyXpS_Zdem4Mu0vLX7sSNZl_z6qElJ0VK5qAo,"
    <img id = 'img_b1' width = 18% height = 32% style = 'position:absolute;top:10%;left:25%'>
    <img id = 'img_b2' width = 18% height = 32% style = 'position:absolute;top:10%;right:25%'>
    <img id = 'img_b3' width = 18% height = 32% style = 'position:absolute;bottom:10%;left:25%'>
    <img id = 'img_b4' width = 18% height = 32% style = 'position:absolute;bottom:10%;right:25%'>
    <div id = 'band_txt'></div>
    <div id = 'cum' style = 'position:absolute;top:5%;right:5%;font-size:calc(18px + 6 * ((100vw - 320px) / 680))'></div>
  ","""","""","""","""","""","""","""","""","""","2021-05-16 20:36:12",27.63.157.77,"Mozilla/5.0 (Windows NT 10.0; Win64; x64) AppleWebKit/537.36 (KHTML, like Gecko) Chrome/90.0.4430.212 Safari/537.36",WebKit,Chrome,90.0.4430.212,Windows,10.0
178,1,null,null,html-keyboard-response,20,48584,0.0-20.0,IwAR2P93ukWaKHwC_Dv2xM2_QyXpS_Zdem4Mu0vLX7sSNZl_z6qElJ0VK5qAo,"<div style=""font-size:60px;"">+</div>","""","""","""","""","""","""","""","""","""","2021-05-16 20:36:12",27.63.157.77,"Mozilla/5.0 (Windows NT 10.0; Win64; x64) AppleWebKit/537.36 (KHTML, like Gecko) Chrome/90.0.4430.212 Safari/537.36",WebKit,Chrome,90.0.4430.212,Windows,10.0
178,1,816.9499998912215,m,html-keyboard-response,21,49406,0.0-21.0,IwAR2P93ukWaKHwC_Dv2xM2_QyXpS_Zdem4Mu0vLX7sSNZl_z6qElJ0VK5qAo,"
    <img id = 'img_b1' width = 18% height = 32% style = 'position:absolute;top:10%;left:25%'>
    <img id = 'img_b2' width = 18% height = 32% style = 'position:absolute;top:10%;right:25%'>
    <img id = 'img_b3' width = 18% height = 32% style = 'position:absolute;bottom:10%;left:25%'>
    <img id = 'img_b4' width = 18% height = 32% style = 'position:absolute;bottom:10%;right:25%'>
    <div id = 'cum' style = 'position:absolute;top:5%;right:5%;font-size:calc(18px + 6 * ((100vw - 320px) / 680))'></div>
  ","""","""","""","""","""","""","""","""","""","2021-05-16 20:36:12",27.63.157.77,"Mozilla/5.0 (Windows NT 10.0; Win64; x64) AppleWebKit/537.36 (KHTML, like Gecko) Chrome/90.0.4430.212 Safari/537.36",WebKit,Chrome,90.0.4430.212,Windows,10.0
178,1,null,null,html-keyboard-response,22,50916,0.0-22.0,IwAR2P93ukWaKHwC_Dv2xM2_QyXpS_Zdem4Mu0vLX7sSNZl_z6qElJ0VK5qAo,"
    <img id = 'img_b1' width = 18% height = 32% style = 'position:absolute;top:10%;left:25%'>
    <img id = 'img_b2' width = 18% height = 32% style = 'position:absolute;top:10%;right:25%'>
    <img id = 'img_b3' width = 18% height = 32% style = 'position:absolute;bottom:10%;left:25%'>
    <img id = 'img_b4' width = 18% height = 32% style = 'position:absolute;bottom:10%;right:25%'>
    <div id = 'band_txt'></div>
    <div id = 'cum' style = 'position:absolute;top:5%;right:5%;font-size:calc(18px + 6 * ((100vw - 320px) / 680))'></div>
  ","""","""","""","""","""","""","""","""","""","2021-05-16 20:36:12",27.63.157.77,"Mozilla/5.0 (Windows NT 10.0; Win64; x64) AppleWebKit/537.36 (KHTML, like Gecko) Chrome/90.0.4430.212 Safari/537.36",WebKit,Chrome,90.0.4430.212,Windows,10.0
178,1,null,null,html-keyboard-response,23,52678,0.0-23.0,IwAR2P93ukWaKHwC_Dv2xM2_QyXpS_Zdem4Mu0vLX7sSNZl_z6qElJ0VK5qAo,"<div style=""font-size:60px;"">+</div>","""","""","""","""","""","""","""","""","""","2021-05-16 20:36:12",27.63.157.77,"Mozilla/5.0 (Windows NT 10.0; Win64; x64) AppleWebKit/537.36 (KHTML, like Gecko) Chrome/90.0.4430.212 Safari/537.36",WebKit,Chrome,90.0.4430.212,Windows,10.0
178,1,545.6250000279397,m,html-keyboard-response,24,53225,0.0-24.0,IwAR2P93ukWaKHwC_Dv2xM2_QyXpS_Zdem4Mu0vLX7sSNZl_z6qElJ0VK5qAo,"
    <img id = 'img_b1' width = 18% height = 32% style = 'position:absolute;top:10%;left:25%'>
    <img id = 'img_b2' width = 18% height = 32% style = 'position:absolute;top:10%;right:25%'>
    <img id = 'img_b3' width = 18% height = 32% style = 'position:absolute;bottom:10%;left:25%'>
    <img id = 'img_b4' width = 18% height = 32% style = 'position:absolute;bottom:10%;right:25%'>
    <div id = 'cum' style = 'position:absolute;top:5%;right:5%;font-size:calc(18px + 6 * ((100vw - 320px) / 680))'></div>
  ","""","""","""","""","""","""","""","""","""","2021-05-16 20:36:12",27.63.157.77,"Mozilla/5.0 (Windows NT 10.0; Win64; x64) AppleWebKit/537.36 (KHTML, like Gecko) Chrome/90.0.4430.212 Safari/537.36",WebKit,Chrome,90.0.4430.212,Windows,10.0
178,1,null,null,html-keyboard-response,25,54736,0.0-25.0,IwAR2P93ukWaKHwC_Dv2xM2_QyXpS_Zdem4Mu0vLX7sSNZl_z6qElJ0VK5qAo,"
    <img id = 'img_b1' width = 18% height = 32% style = 'position:absolute;top:10%;left:25%'>
    <img id = 'img_b2' width = 18% height = 32% style = 'position:absolute;top:10%;right:25%'>
    <img id = 'img_b3' width = 18% height = 32% style = 'position:absolute;bottom:10%;left:25%'>
    <img id = 'img_b4' width = 18% height = 32% style = 'position:absolute;bottom:10%;right:25%'>
    <div id = 'band_txt'></div>
    <div id = 'cum' style = 'position:absolute;top:5%;right:5%;font-size:calc(18px + 6 * ((100vw - 320px) / 680))'></div>
  ","""","""","""","""","""","""","""","""","""","2021-05-16 20:36:12",27.63.157.77,"Mozilla/5.0 (Windows NT 10.0; Win64; x64) AppleWebKit/537.36 (KHTML, like Gecko) Chrome/90.0.4430.212 Safari/537.36",WebKit,Chrome,90.0.4430.212,Windows,10.0
178,1,null,null,html-keyboard-response,26,55501,0.0-26.0,IwAR2P93ukWaKHwC_Dv2xM2_QyXpS_Zdem4Mu0vLX7sSNZl_z6qElJ0VK5qAo,"<div style=""font-size:60px;"">+</div>","""","""","""","""","""","""","""","""","""","2021-05-16 20:36:12",27.63.157.77,"Mozilla/5.0 (Windows NT 10.0; Win64; x64) AppleWebKit/537.36 (KHTML, like Gecko) Chrome/90.0.4430.212 Safari/537.36",WebKit,Chrome,90.0.4430.212,Windows,10.0
178,1,712.4499999918044,m,html-keyboard-response,27,56215,0.0-27.0,IwAR2P93ukWaKHwC_Dv2xM2_QyXpS_Zdem4Mu0vLX7sSNZl_z6qElJ0VK5qAo,"
    <img id = 'img_b1' width = 18% height = 32% style = 'position:absolute;top:10%;left:25%'>
    <img id = 'img_b2' width = 18% height = 32% style = 'position:absolute;top:10%;right:25%'>
    <img id = 'img_b3' width = 18% height = 32% style = 'position:absolute;bottom:10%;left:25%'>
    <img id = 'img_b4' width = 18% height = 32% style = 'position:absolute;bottom:10%;right:25%'>
    <div id = 'cum' style = 'position:absolute;top:5%;right:5%;font-size:calc(18px + 6 * ((100vw - 320px) / 680))'></div>
  ","""","""","""","""","""","""","""","""","""","2021-05-16 20:36:12",27.63.157.77,"Mozilla/5.0 (Windows NT 10.0; Win64; x64) AppleWebKit/537.36 (KHTML, like Gecko) Chrome/90.0.4430.212 Safari/537.36",WebKit,Chrome,90.0.4430.212,Windows,10.0
178,1,null,null,html-keyboard-response,28,57718,0.0-28.0,IwAR2P93ukWaKHwC_Dv2xM2_QyXpS_Zdem4Mu0vLX7sSNZl_z6qElJ0VK5qAo,"
    <img id = 'img_b1' width = 18% height = 32% style = 'position:absolute;top:10%;left:25%'>
    <img id = 'img_b2' width = 18% height = 32% style = 'position:absolute;top:10%;right:25%'>
    <img id = 'img_b3' width = 18% height = 32% style = 'position:absolute;bottom:10%;left:25%'>
    <img id = 'img_b4' width = 18% height = 32% style = 'position:absolute;bottom:10%;right:25%'>
    <div id = 'band_txt'></div>
    <div id = 'cum' style = 'position:absolute;top:5%;right:5%;font-size:calc(18px + 6 * ((100vw - 320px) / 680))'></div>
  ","""","""","""","""","""","""","""","""","""","2021-05-16 20:36:12",27.63.157.77,"Mozilla/5.0 (Windows NT 10.0; Win64; x64) AppleWebKit/537.36 (KHTML, like Gecko) Chrome/90.0.4430.212 Safari/537.36",WebKit,Chrome,90.0.4430.212,Windows,10.0
178,1,null,null,html-keyboard-response,29,58483,0.0-29.0,IwAR2P93ukWaKHwC_Dv2xM2_QyXpS_Zdem4Mu0vLX7sSNZl_z6qElJ0VK5qAo,"<div style=""font-size:60px;"">+</div>","""","""","""","""","""","""","""","""","""","2021-05-16 20:36:12",27.63.157.77,"Mozilla/5.0 (Windows NT 10.0; Win64; x64) AppleWebKit/537.36 (KHTML, like Gecko) Chrome/90.0.4430.212 Safari/537.36",WebKit,Chrome,90.0.4430.212,Windows,10.0
178,1,620.1849998906255,m,html-keyboard-response,30,59105,0.0-30.0,IwAR2P93ukWaKHwC_Dv2xM2_QyXpS_Zdem4Mu0vLX7sSNZl_z6qElJ0VK5qAo,"
    <img id = 'img_b1' width = 18% height = 32% style = 'position:absolute;top:10%;left:25%'>
    <img id = 'img_b2' width = 18% height = 32% style = 'position:absolute;top:10%;right:25%'>
    <img id = 'img_b3' width = 18% height = 32% style = 'position:absolute;bottom:10%;left:25%'>
    <img id = 'img_b4' width = 18% height = 32% style = 'position:absolute;bottom:10%;right:25%'>
    <div id = 'cum' style = 'position:absolute;top:5%;right:5%;font-size:calc(18px + 6 * ((100vw - 320px) / 680))'></div>
  ","""","""","""","""","""","""","""","""","""","2021-05-16 20:36:12",27.63.157.77,"Mozilla/5.0 (Windows NT 10.0; Win64; x64) AppleWebKit/537.36 (KHTML, like Gecko) Chrome/90.0.4430.212 Safari/537.36",WebKit,Chrome,90.0.4430.212,Windows,10.0
178,1,null,null,html-keyboard-response,31,60616,0.0-31.0,IwAR2P93ukWaKHwC_Dv2xM2_QyXpS_Zdem4Mu0vLX7sSNZl_z6qElJ0VK5qAo,"
    <img id = 'img_b1' width = 18% height = 32% style = 'position:absolute;top:10%;left:25%'>
    <img id = 'img_b2' width = 18% height = 32% style = 'position:absolute;top:10%;right:25%'>
    <img id = 'img_b3' width = 18% height = 32% style = 'position:absolute;bottom:10%;left:25%'>
    <img id = 'img_b4' width = 18% height = 32% style = 'position:absolute;bottom:10%;right:25%'>
    <div id = 'band_txt'></div>
    <div id = 'cum' style = 'position:absolute;top:5%;right:5%;font-size:calc(18px + 6 * ((100vw - 320px) / 680))'></div>
  ","""","""","""","""","""","""","""","""","""","2021-05-16 20:36:12",27.63.157.77,"Mozilla/5.0 (Windows NT 10.0; Win64; x64) AppleWebKit/537.36 (KHTML, like Gecko) Chrome/90.0.4430.212 Safari/537.36",WebKit,Chrome,90.0.4430.212,Windows,10.0
178,1,null,null,html-keyboard-response,32,62126,0.0-32.0,IwAR2P93ukWaKHwC_Dv2xM2_QyXpS_Zdem4Mu0vLX7sSNZl_z6qElJ0VK5qAo,"<div style=""font-size:60px;"">+</div>","""","""","""","""","""","""","""","""","""","2021-05-16 20:36:12",27.63.157.77,"Mozilla/5.0 (Windows NT 10.0; Win64; x64) AppleWebKit/537.36 (KHTML, like Gecko) Chrome/90.0.4430.212 Safari/537.36",WebKit,Chrome,90.0.4430.212,Windows,10.0
178,1,493.9699999522418,m,html-keyboard-response,33,62621,0.0-33.0,IwAR2P93ukWaKHwC_Dv2xM2_QyXpS_Zdem4Mu0vLX7sSNZl_z6qElJ0VK5qAo,"
    <img id = 'img_b1' width = 18% height = 32% style = 'position:absolute;top:10%;left:25%'>
    <img id = 'img_b2' width = 18% height = 32% style = 'position:absolute;top:10%;right:25%'>
    <img id = 'img_b3' width = 18% height = 32% style = 'position:absolute;bottom:10%;left:25%'>
    <img id = 'img_b4' width = 18% height = 32% style = 'position:absolute;bottom:10%;right:25%'>
    <div id = 'cum' style = 'position:absolute;top:5%;right:5%;font-size:calc(18px + 6 * ((100vw - 320px) / 680))'></div>
  ","""","""","""","""","""","""","""","""","""","2021-05-16 20:36:12",27.63.157.77,"Mozilla/5.0 (Windows NT 10.0; Win64; x64) AppleWebKit/537.36 (KHTML, like Gecko) Chrome/90.0.4430.212 Safari/537.36",WebKit,Chrome,90.0.4430.212,Windows,10.0
178,1,null,null,html-keyboard-response,34,64132,0.0-34.0,IwAR2P93ukWaKHwC_Dv2xM2_QyXpS_Zdem4Mu0vLX7sSNZl_z6qElJ0VK5qAo,"
    <img id = 'img_b1' width = 18% height = 32% style = 'position:absolute;top:10%;left:25%'>
    <img id = 'img_b2' width = 18% height = 32% style = 'position:absolute;top:10%;right:25%'>
    <img id = 'img_b3' width = 18% height = 32% style = 'position:absolute;bottom:10%;left:25%'>
    <img id = 'img_b4' width = 18% height = 32% style = 'position:absolute;bottom:10%;right:25%'>
    <div id = 'band_txt'></div>
    <div id = 'cum' style = 'position:absolute;top:5%;right:5%;font-size:calc(18px + 6 * ((100vw - 320px) / 680))'></div>
  ","""","""","""","""","""","""","""","""","""","2021-05-16 20:36:12",27.63.157.77,"Mozilla/5.0 (Windows NT 10.0; Win64; x64) AppleWebKit/537.36 (KHTML, like Gecko) Chrome/90.0.4430.212 Safari/537.36",WebKit,Chrome,90.0.4430.212,Windows,10.0
178,1,null,null,html-keyboard-response,35,64885,0.0-35.0,IwAR2P93ukWaKHwC_Dv2xM2_QyXpS_Zdem4Mu0vLX7sSNZl_z6qElJ0VK5qAo,"<div style=""font-size:60px;"">+</div>","""","""","""","""","""","""","""","""","""","2021-05-16 20:36:12",27.63.157.77,"Mozilla/5.0 (Windows NT 10.0; Win64; x64) AppleWebKit/537.36 (KHTML, like Gecko) Chrome/90.0.4430.212 Safari/537.36",WebKit,Chrome,90.0.4430.212,Windows,10.0
178,1,693.0149998515844,m,html-keyboard-response,36,65580,0.0-36.0,IwAR2P93ukWaKHwC_Dv2xM2_QyXpS_Zdem4Mu0vLX7sSNZl_z6qElJ0VK5qAo,"
    <img id = 'img_b1' width = 18% height = 32% style = 'position:absolute;top:10%;left:25%'>
    <img id = 'img_b2' width = 18% height = 32% style = 'position:absolute;top:10%;right:25%'>
    <img id = 'img_b3' width = 18% height = 32% style = 'position:absolute;bottom:10%;left:25%'>
    <img id = 'img_b4' width = 18% height = 32% style = 'position:absolute;bottom:10%;right:25%'>
    <div id = 'cum' style = 'position:absolute;top:5%;right:5%;font-size:calc(18px + 6 * ((100vw - 320px) / 680))'></div>
  ","""","""","""","""","""","""","""","""","""","2021-05-16 20:36:12",27.63.157.77,"Mozilla/5.0 (Windows NT 10.0; Win64; x64) AppleWebKit/537.36 (KHTML, like Gecko) Chrome/90.0.4430.212 Safari/537.36",WebKit,Chrome,90.0.4430.212,Windows,10.0
178,1,null,null,html-keyboard-response,37,67091,0.0-37.0,IwAR2P93ukWaKHwC_Dv2xM2_QyXpS_Zdem4Mu0vLX7sSNZl_z6qElJ0VK5qAo,"
    <img id = 'img_b1' width = 18% height = 32% style = 'position:absolute;top:10%;left:25%'>
    <img id = 'img_b2' width = 18% height = 32% style = 'position:absolute;top:10%;right:25%'>
    <img id = 'img_b3' width = 18% height = 32% style = 'position:absolute;bottom:10%;left:25%'>
    <img id = 'img_b4' width = 18% height = 32% style = 'position:absolute;bottom:10%;right:25%'>
    <div id = 'band_txt'></div>
    <div id = 'cum' style = 'position:absolute;top:5%;right:5%;font-size:calc(18px + 6 * ((100vw - 320px) / 680))'></div>
  ","""","""","""","""","""","""","""","""","""","2021-05-16 20:36:12",27.63.157.77,"Mozilla/5.0 (Windows NT 10.0; Win64; x64) AppleWebKit/537.36 (KHTML, like Gecko) Chrome/90.0.4430.212 Safari/537.36",WebKit,Chrome,90.0.4430.212,Windows,10.0
178,1,null,null,html-keyboard-response,38,68099,0.0-38.0,IwAR2P93ukWaKHwC_Dv2xM2_QyXpS_Zdem4Mu0vLX7sSNZl_z6qElJ0VK5qAo,"<div style=""font-size:60px;"">+</div>","""","""","""","""","""","""","""","""","""","2021-05-16 20:36:12",27.63.157.77,"Mozilla/5.0 (Windows NT 10.0; Win64; x64) AppleWebKit/537.36 (KHTML, like Gecko) Chrome/90.0.4430.212 Safari/537.36",WebKit,Chrome,90.0.4430.212,Windows,10.0
178,1,2718.7550000380725,m,html-keyboard-response,39,70819,0.0-39.0,IwAR2P93ukWaKHwC_Dv2xM2_QyXpS_Zdem4Mu0vLX7sSNZl_z6qElJ0VK5qAo,"
    <img id = 'img_b1' width = 18% height = 32% style = 'position:absolute;top:10%;left:25%'>
    <img id = 'img_b2' width = 18% height = 32% style = 'position:absolute;top:10%;right:25%'>
    <img id = 'img_b3' width = 18% height = 32% style = 'position:absolute;bottom:10%;left:25%'>
    <img id = 'img_b4' width = 18% height = 32% style = 'position:absolute;bottom:10%;right:25%'>
    <div id = 'cum' style = 'position:absolute;top:5%;right:5%;font-size:calc(18px + 6 * ((100vw - 320px) / 680))'></div>
  ","""","""","""","""","""","""","""","""","""","2021-05-16 20:36:12",27.63.157.77,"Mozilla/5.0 (Windows NT 10.0; Win64; x64) AppleWebKit/537.36 (KHTML, like Gecko) Chrome/90.0.4430.212 Safari/537.36",WebKit,Chrome,90.0.4430.212,Windows,10.0
178,1,null,null,html-keyboard-response,40,72332,0.0-40.0,IwAR2P93ukWaKHwC_Dv2xM2_QyXpS_Zdem4Mu0vLX7sSNZl_z6qElJ0VK5qAo,"
    <img id = 'img_b1' width = 18% height = 32% style = 'position:absolute;top:10%;left:25%'>
    <img id = 'img_b2' width = 18% height = 32% style = 'position:absolute;top:10%;right:25%'>
    <img id = 'img_b3' width = 18% height = 32% style = 'position:absolute;bottom:10%;left:25%'>
    <img id = 'img_b4' width = 18% height = 32% style = 'position:absolute;bottom:10%;right:25%'>
    <div id = 'band_txt'></div>
    <div id = 'cum' style = 'position:absolute;top:5%;right:5%;font-size:calc(18px + 6 * ((100vw - 320px) / 680))'></div>
  ","""","""","""","""","""","""","""","""","""","2021-05-16 20:36:12",27.63.157.77,"Mozilla/5.0 (Windows NT 10.0; Win64; x64) AppleWebKit/537.36 (KHTML, like Gecko) Chrome/90.0.4430.212 Safari/537.36",WebKit,Chrome,90.0.4430.212,Windows,10.0
178,1,null,null,html-keyboard-response,41,73341,0.0-41.0,IwAR2P93ukWaKHwC_Dv2xM2_QyXpS_Zdem4Mu0vLX7sSNZl_z6qElJ0VK5qAo,"<div style=""font-size:60px;"">+</div>","""","""","""","""","""","""","""","""","""","2021-05-16 20:36:12",27.63.157.77,"Mozilla/5.0 (Windows NT 10.0; Win64; x64) AppleWebKit/537.36 (KHTML, like Gecko) Chrome/90.0.4430.212 Safari/537.36",WebKit,Chrome,90.0.4430.212,Windows,10.0
178,1,958.165000192821,m,html-keyboard-response,42,74304,0.0-42.0,IwAR2P93ukWaKHwC_Dv2xM2_QyXpS_Zdem4Mu0vLX7sSNZl_z6qElJ0VK5qAo,"
    <img id = 'img_b1' width = 18% height = 32% style = 'position:absolute;top:10%;left:25%'>
    <img id = 'img_b2' width = 18% height = 32% style = 'position:absolute;top:10%;right:25%'>
    <img id = 'img_b3' width = 18% height = 32% style = 'position:absolute;bottom:10%;left:25%'>
    <img id = 'img_b4' width = 18% height = 32% style = 'position:absolute;bottom:10%;right:25%'>
    <div id = 'cum' style = 'position:absolute;top:5%;right:5%;font-size:calc(18px + 6 * ((100vw - 320px) / 680))'></div>
  ","""","""","""","""","""","""","""","""","""","2021-05-16 20:36:12",27.63.157.77,"Mozilla/5.0 (Windows NT 10.0; Win64; x64) AppleWebKit/537.36 (KHTML, like Gecko) Chrome/90.0.4430.212 Safari/537.36",WebKit,Chrome,90.0.4430.212,Windows,10.0
178,1,null,null,html-keyboard-response,43,75818,0.0-43.0,IwAR2P93ukWaKHwC_Dv2xM2_QyXpS_Zdem4Mu0vLX7sSNZl_z6qElJ0VK5qAo,"
    <img id = 'img_b1' width = 18% height = 32% style = 'position:absolute;top:10%;left:25%'>
    <img id = 'img_b2' width = 18% height = 32% style = 'position:absolute;top:10%;right:25%'>
    <img id = 'img_b3' width = 18% height = 32% style = 'position:absolute;bottom:10%;left:25%'>
    <img id = 'img_b4' width = 18% height = 32% style = 'position:absolute;bottom:10%;right:25%'>
    <div id = 'band_txt'></div>
    <div id = 'cum' style = 'position:absolute;top:5%;right:5%;font-size:calc(18px + 6 * ((100vw - 320px) / 680))'></div>
  ","""","""","""","""","""","""","""","""","""","2021-05-16 20:36:12",27.63.157.77,"Mozilla/5.0 (Windows NT 10.0; Win64; x64) AppleWebKit/537.36 (KHTML, like Gecko) Chrome/90.0.4430.212 Safari/537.36",WebKit,Chrome,90.0.4430.212,Windows,10.0
178,1,null,null,html-keyboard-response,44,76834,0.0-44.0,IwAR2P93ukWaKHwC_Dv2xM2_QyXpS_Zdem4Mu0vLX7sSNZl_z6qElJ0VK5qAo,"<div style=""font-size:60px;"">+</div>","""","""","""","""","""","""","""","""","""","2021-05-16 20:36:12",27.63.157.77,"Mozilla/5.0 (Windows NT 10.0; Win64; x64) AppleWebKit/537.36 (KHTML, like Gecko) Chrome/90.0.4430.212 Safari/537.36",WebKit,Chrome,90.0.4430.212,Windows,10.0
178,1,411.79999988526106,m,html-keyboard-response,45,77247,0.0-45.0,IwAR2P93ukWaKHwC_Dv2xM2_QyXpS_Zdem4Mu0vLX7sSNZl_z6qElJ0VK5qAo,"
    <img id = 'img_b1' width = 18% height = 32% style = 'position:absolute;top:10%;left:25%'>
    <img id = 'img_b2' width = 18% height = 32% style = 'position:absolute;top:10%;right:25%'>
    <img id = 'img_b3' width = 18% height = 32% style = 'position:absolute;bottom:10%;left:25%'>
    <img id = 'img_b4' width = 18% height = 32% style = 'position:absolute;bottom:10%;right:25%'>
    <div id = 'cum' style = 'position:absolute;top:5%;right:5%;font-size:calc(18px + 6 * ((100vw - 320px) / 680))'></div>
  ","""","""","""","""","""","""","""","""","""","2021-05-16 20:36:12",27.63.157.77,"Mozilla/5.0 (Windows NT 10.0; Win64; x64) AppleWebKit/537.36 (KHTML, like Gecko) Chrome/90.0.4430.212 Safari/537.36",WebKit,Chrome,90.0.4430.212,Windows,10.0
178,1,null,null,html-keyboard-response,46,78763,0.0-46.0,IwAR2P93ukWaKHwC_Dv2xM2_QyXpS_Zdem4Mu0vLX7sSNZl_z6qElJ0VK5qAo,"
    <img id = 'img_b1' width = 18% height = 32% style = 'position:absolute;top:10%;left:25%'>
    <img id = 'img_b2' width = 18% height = 32% style = 'position:absolute;top:10%;right:25%'>
    <img id = 'img_b3' width = 18% height = 32% style = 'position:absolute;bottom:10%;left:25%'>
    <img id = 'img_b4' width = 18% height = 32% style = 'position:absolute;bottom:10%;right:25%'>
    <div id = 'band_txt'></div>
    <div id = 'cum' style = 'position:absolute;top:5%;right:5%;font-size:calc(18px + 6 * ((100vw - 320px) / 680))'></div>
  ","""","""","""","""","""","""","""","""","""","2021-05-16 20:36:12",27.63.157.77,"Mozilla/5.0 (Windows NT 10.0; Win64; x64) AppleWebKit/537.36 (KHTML, like Gecko) Chrome/90.0.4430.212 Safari/537.36",WebKit,Chrome,90.0.4430.212,Windows,10.0
178,1,null,null,html-keyboard-response,47,80520,0.0-47.0,IwAR2P93ukWaKHwC_Dv2xM2_QyXpS_Zdem4Mu0vLX7sSNZl_z6qElJ0VK5qAo,"<div style=""font-size:60px;"">+</div>","""","""","""","""","""","""","""","""","""","2021-05-16 20:36:12",27.63.157.77,"Mozilla/5.0 (Windows NT 10.0; Win64; x64) AppleWebKit/537.36 (KHTML, like Gecko) Chrome/90.0.4430.212 Safari/537.36",WebKit,Chrome,90.0.4430.212,Windows,10.0
178,1,505.9049997944385,m,html-keyboard-response,48,81029,0.0-48.0,IwAR2P93ukWaKHwC_Dv2xM2_QyXpS_Zdem4Mu0vLX7sSNZl_z6qElJ0VK5qAo,"
    <img id = 'img_b1' width = 18% height = 32% style = 'position:absolute;top:10%;left:25%'>
    <img id = 'img_b2' width = 18% height = 32% style = 'position:absolute;top:10%;right:25%'>
    <img id = 'img_b3' width = 18% height = 32% style = 'position:absolute;bottom:10%;left:25%'>
    <img id = 'img_b4' width = 18% height = 32% style = 'position:absolute;bottom:10%;right:25%'>
    <div id = 'cum' style = 'position:absolute;top:5%;right:5%;font-size:calc(18px + 6 * ((100vw - 320px) / 680))'></div>
  ","""","""","""","""","""","""","""","""","""","2021-05-16 20:36:12",27.63.157.77,"Mozilla/5.0 (Windows NT 10.0; Win64; x64) AppleWebKit/537.36 (KHTML, like Gecko) Chrome/90.0.4430.212 Safari/537.36",WebKit,Chrome,90.0.4430.212,Windows,10.0
178,1,null,null,html-keyboard-response,49,82534,0.0-49.0,IwAR2P93ukWaKHwC_Dv2xM2_QyXpS_Zdem4Mu0vLX7sSNZl_z6qElJ0VK5qAo,"
    <img id = 'img_b1' width = 18% height = 32% style = 'position:absolute;top:10%;left:25%'>
    <img id = 'img_b2' width = 18% height = 32% style = 'position:absolute;top:10%;right:25%'>
    <img id = 'img_b3' width = 18% height = 32% style = 'position:absolute;bottom:10%;left:25%'>
    <img id = 'img_b4' width = 18% height = 32% style = 'position:absolute;bottom:10%;right:25%'>
    <div id = 'band_txt'></div>
    <div id = 'cum' style = 'position:absolute;top:5%;right:5%;font-size:calc(18px + 6 * ((100vw - 320px) / 680))'></div>
  ","""","""","""","""","""","""","""","""","""","2021-05-16 20:36:12",27.63.157.77,"Mozilla/5.0 (Windows NT 10.0; Win64; x64) AppleWebKit/537.36 (KHTML, like Gecko) Chrome/90.0.4430.212 Safari/537.36",WebKit,Chrome,90.0.4430.212,Windows,10.0
178,1,null,null,html-keyboard-response,50,83296,0.0-50.0,IwAR2P93ukWaKHwC_Dv2xM2_QyXpS_Zdem4Mu0vLX7sSNZl_z6qElJ0VK5qAo,"<div style=""font-size:60px;"">+</div>","""","""","""","""","""","""","""","""","""","2021-05-16 20:36:12",27.63.157.77,"Mozilla/5.0 (Windows NT 10.0; Win64; x64) AppleWebKit/537.36 (KHTML, like Gecko) Chrome/90.0.4430.212 Safari/537.36",WebKit,Chrome,90.0.4430.212,Windows,10.0
178,1,2337.3950000386685,p,html-keyboard-response,51,85634,0.0-51.0,IwAR2P93ukWaKHwC_Dv2xM2_QyXpS_Zdem4Mu0vLX7sSNZl_z6qElJ0VK5qAo,"
    <img id = 'img_b1' width = 18% height = 32% style = 'position:absolute;top:10%;left:25%'>
    <img id = 'img_b2' width = 18% height = 32% style = 'position:absolute;top:10%;right:25%'>
    <img id = 'img_b3' width = 18% height = 32% style = 'position:absolute;bottom:10%;left:25%'>
    <img id = 'img_b4' width = 18% height = 32% style = 'position:absolute;bottom:10%;right:25%'>
    <div id = 'cum' style = 'position:absolute;top:5%;right:5%;font-size:calc(18px + 6 * ((100vw - 320px) / 680))'></div>
  ","""","""","""","""","""","""","""","""","""","2021-05-16 20:36:12",27.63.157.77,"Mozilla/5.0 (Windows NT 10.0; Win64; x64) AppleWebKit/537.36 (KHTML, like Gecko) Chrome/90.0.4430.212 Safari/537.36",WebKit,Chrome,90.0.4430.212,Windows,10.0
178,1,null,null,html-keyboard-response,52,87151,0.0-52.0,IwAR2P93ukWaKHwC_Dv2xM2_QyXpS_Zdem4Mu0vLX7sSNZl_z6qElJ0VK5qAo,"
    <img id = 'img_b1' width = 18% height = 32% style = 'position:absolute;top:10%;left:25%'>
    <img id = 'img_b2' width = 18% height = 32% style = 'position:absolute;top:10%;right:25%'>
    <img id = 'img_b3' width = 18% height = 32% style = 'position:absolute;bottom:10%;left:25%'>
    <img id = 'img_b4' width = 18% height = 32% style = 'position:absolute;bottom:10%;right:25%'>
    <div id = 'band_txt'></div>
    <div id = 'cum' style = 'position:absolute;top:5%;right:5%;font-size:calc(18px + 6 * ((100vw - 320px) / 680))'></div>
  ","""","""","""","""","""","""","""","""","""","2021-05-16 20:36:12",27.63.157.77,"Mozilla/5.0 (Windows NT 10.0; Win64; x64) AppleWebKit/537.36 (KHTML, like Gecko) Chrome/90.0.4430.212 Safari/537.36",WebKit,Chrome,90.0.4430.212,Windows,10.0
178,1,null,null,html-keyboard-response,53,88167,0.0-53.0,IwAR2P93ukWaKHwC_Dv2xM2_QyXpS_Zdem4Mu0vLX7sSNZl_z6qElJ0VK5qAo,"<div style=""font-size:60px;"">+</div>","""","""","""","""","""","""","""","""","""","2021-05-16 20:36:12",27.63.157.77,"Mozilla/5.0 (Windows NT 10.0; Win64; x64) AppleWebKit/537.36 (KHTML, like Gecko) Chrome/90.0.4430.212 Safari/537.36",WebKit,Chrome,90.0.4430.212,Windows,10.0
178,1,465.68000013940036,z,html-keyboard-response,54,88636,0.0-54.0,IwAR2P93ukWaKHwC_Dv2xM2_QyXpS_Zdem4Mu0vLX7sSNZl_z6qElJ0VK5qAo,"
    <img id = 'img_b1' width = 18% height = 32% style = 'position:absolute;top:10%;left:25%'>
    <img id = 'img_b2' width = 18% height = 32% style = 'position:absolute;top:10%;right:25%'>
    <img id = 'img_b3' width = 18% height = 32% style = 'position:absolute;bottom:10%;left:25%'>
    <img id = 'img_b4' width = 18% height = 32% style = 'position:absolute;bottom:10%;right:25%'>
    <div id = 'cum' style = 'position:absolute;top:5%;right:5%;font-size:calc(18px + 6 * ((100vw - 320px) / 680))'></div>
  ","""","""","""","""","""","""","""","""","""","2021-05-16 20:36:12",27.63.157.77,"Mozilla/5.0 (Windows NT 10.0; Win64; x64) AppleWebKit/537.36 (KHTML, like Gecko) Chrome/90.0.4430.212 Safari/537.36",WebKit,Chrome,90.0.4430.212,Windows,10.0
178,1,null,null,html-keyboard-response,55,90149,0.0-55.0,IwAR2P93ukWaKHwC_Dv2xM2_QyXpS_Zdem4Mu0vLX7sSNZl_z6qElJ0VK5qAo,"
    <img id = 'img_b1' width = 18% height = 32% style = 'position:absolute;top:10%;left:25%'>
    <img id = 'img_b2' width = 18% height = 32% style = 'position:absolute;top:10%;right:25%'>
    <img id = 'img_b3' width = 18% height = 32% style = 'position:absolute;bottom:10%;left:25%'>
    <img id = 'img_b4' width = 18% height = 32% style = 'position:absolute;bottom:10%;right:25%'>
    <div id = 'band_txt'></div>
    <div id = 'cum' style = 'position:absolute;top:5%;right:5%;font-size:calc(18px + 6 * ((100vw - 320px) / 680))'></div>
  ","""","""","""","""","""","""","""","""","""","2021-05-16 20:36:12",27.63.157.77,"Mozilla/5.0 (Windows NT 10.0; Win64; x64) AppleWebKit/537.36 (KHTML, like Gecko) Chrome/90.0.4430.212 Safari/537.36",WebKit,Chrome,90.0.4430.212,Windows,10.0
178,1,null,null,html-keyboard-response,56,91662,0.0-56.0,IwAR2P93ukWaKHwC_Dv2xM2_QyXpS_Zdem4Mu0vLX7sSNZl_z6qElJ0VK5qAo,"<div style=""font-size:60px;"">+</div>","""","""","""","""","""","""","""","""","""","2021-05-16 20:36:12",27.63.157.77,"Mozilla/5.0 (Windows NT 10.0; Win64; x64) AppleWebKit/537.36 (KHTML, like Gecko) Chrome/90.0.4430.212 Safari/537.36",WebKit,Chrome,90.0.4430.212,Windows,10.0
178,1,449.6599999256432,q,html-keyboard-response,57,92112,0.0-57.0,IwAR2P93ukWaKHwC_Dv2xM2_QyXpS_Zdem4Mu0vLX7sSNZl_z6qElJ0VK5qAo,"
    <img id = 'img_b1' width = 18% height = 32% style = 'position:absolute;top:10%;left:25%'>
    <img id = 'img_b2' width = 18% height = 32% style = 'position:absolute;top:10%;right:25%'>
    <img id = 'img_b3' width = 18% height = 32% style = 'position:absolute;bottom:10%;left:25%'>
    <img id = 'img_b4' width = 18% height = 32% style = 'position:absolute;bottom:10%;right:25%'>
    <div id = 'cum' style = 'position:absolute;top:5%;right:5%;font-size:calc(18px + 6 * ((100vw - 320px) / 680))'></div>
  ","""","""","""","""","""","""","""","""","""","2021-05-16 20:36:12",27.63.157.77,"Mozilla/5.0 (Windows NT 10.0; Win64; x64) AppleWebKit/537.36 (KHTML, like Gecko) Chrome/90.0.4430.212 Safari/537.36",WebKit,Chrome,90.0.4430.212,Windows,10.0
178,1,null,null,html-keyboard-response,58,93615,0.0-58.0,IwAR2P93ukWaKHwC_Dv2xM2_QyXpS_Zdem4Mu0vLX7sSNZl_z6qElJ0VK5qAo,"
    <img id = 'img_b1' width = 18% height = 32% style = 'position:absolute;top:10%;left:25%'>
    <img id = 'img_b2' width = 18% height = 32% style = 'position:absolute;top:10%;right:25%'>
    <img id = 'img_b3' width = 18% height = 32% style = 'position:absolute;bottom:10%;left:25%'>
    <img id = 'img_b4' width = 18% height = 32% style = 'position:absolute;bottom:10%;right:25%'>
    <div id = 'band_txt'></div>
    <div id = 'cum' style = 'position:absolute;top:5%;right:5%;font-size:calc(18px + 6 * ((100vw - 320px) / 680))'></div>
  ","""","""","""","""","""","""","""","""","""","2021-05-16 20:36:12",27.63.157.77,"Mozilla/5.0 (Windows NT 10.0; Win64; x64) AppleWebKit/537.36 (KHTML, like Gecko) Chrome/90.0.4430.212 Safari/537.36",WebKit,Chrome,90.0.4430.212,Windows,10.0
178,1,null,null,html-keyboard-response,59,95126,0.0-59.0,IwAR2P93ukWaKHwC_Dv2xM2_QyXpS_Zdem4Mu0vLX7sSNZl_z6qElJ0VK5qAo,"<div style=""font-size:60px;"">+</div>","""","""","""","""","""","""","""","""","""","2021-05-16 20:36:12",27.63.157.77,"Mozilla/5.0 (Windows NT 10.0; Win64; x64) AppleWebKit/537.36 (KHTML, like Gecko) Chrome/90.0.4430.212 Safari/537.36",WebKit,Chrome,90.0.4430.212,Windows,10.0
178,1,442.1849998179823,m,html-keyboard-response,60,95570,0.0-60.0,IwAR2P93ukWaKHwC_Dv2xM2_QyXpS_Zdem4Mu0vLX7sSNZl_z6qElJ0VK5qAo,"
    <img id = 'img_b1' width = 18% height = 32% style = 'position:absolute;top:10%;left:25%'>
    <img id = 'img_b2' width = 18% height = 32% style = 'position:absolute;top:10%;right:25%'>
    <img id = 'img_b3' width = 18% height = 32% style = 'position:absolute;bottom:10%;left:25%'>
    <img id = 'img_b4' width = 18% height = 32% style = 'position:absolute;bottom:10%;right:25%'>
    <div id = 'cum' style = 'position:absolute;top:5%;right:5%;font-size:calc(18px + 6 * ((100vw - 320px) / 680))'></div>
  ","""","""","""","""","""","""","""","""","""","2021-05-16 20:36:12",27.63.157.77,"Mozilla/5.0 (Windows NT 10.0; Win64; x64) AppleWebKit/537.36 (KHTML, like Gecko) Chrome/90.0.4430.212 Safari/537.36",WebKit,Chrome,90.0.4430.212,Windows,10.0
178,1,null,null,html-keyboard-response,61,97081,0.0-61.0,IwAR2P93ukWaKHwC_Dv2xM2_QyXpS_Zdem4Mu0vLX7sSNZl_z6qElJ0VK5qAo,"
    <img id = 'img_b1' width = 18% height = 32% style = 'position:absolute;top:10%;left:25%'>
    <img id = 'img_b2' width = 18% height = 32% style = 'position:absolute;top:10%;right:25%'>
    <img id = 'img_b3' width = 18% height = 32% style = 'position:absolute;bottom:10%;left:25%'>
    <img id = 'img_b4' width = 18% height = 32% style = 'position:absolute;bottom:10%;right:25%'>
    <div id = 'band_txt'></div>
    <div id = 'cum' style = 'position:absolute;top:5%;right:5%;font-size:calc(18px + 6 * ((100vw - 320px) / 680))'></div>
  ","""","""","""","""","""","""","""","""","""","2021-05-16 20:36:12",27.63.157.77,"Mozilla/5.0 (Windows NT 10.0; Win64; x64) AppleWebKit/537.36 (KHTML, like Gecko) Chrome/90.0.4430.212 Safari/537.36",WebKit,Chrome,90.0.4430.212,Windows,10.0
178,1,null,null,html-keyboard-response,62,97846,0.0-62.0,IwAR2P93ukWaKHwC_Dv2xM2_QyXpS_Zdem4Mu0vLX7sSNZl_z6qElJ0VK5qAo,"<div style=""font-size:60px;"">+</div>","""","""","""","""","""","""","""","""","""","2021-05-16 20:36:12",27.63.157.77,"Mozilla/5.0 (Windows NT 10.0; Win64; x64) AppleWebKit/537.36 (KHTML, like Gecko) Chrome/90.0.4430.212 Safari/537.36",WebKit,Chrome,90.0.4430.212,Windows,10.0
178,1,578.6200000438839,m,html-keyboard-response,63,98427,0.0-63.0,IwAR2P93ukWaKHwC_Dv2xM2_QyXpS_Zdem4Mu0vLX7sSNZl_z6qElJ0VK5qAo,"
    <img id = 'img_b1' width = 18% height = 32% style = 'position:absolute;top:10%;left:25%'>
    <img id = 'img_b2' width = 18% height = 32% style = 'position:absolute;top:10%;right:25%'>
    <img id = 'img_b3' width = 18% height = 32% style = 'position:absolute;bottom:10%;left:25%'>
    <img id = 'img_b4' width = 18% height = 32% style = 'position:absolute;bottom:10%;right:25%'>
    <div id = 'cum' style = 'position:absolute;top:5%;right:5%;font-size:calc(18px + 6 * ((100vw - 320px) / 680))'></div>
  ","""","""","""","""","""","""","""","""","""","2021-05-16 20:36:12",27.63.157.77,"Mozilla/5.0 (Windows NT 10.0; Win64; x64) AppleWebKit/537.36 (KHTML, like Gecko) Chrome/90.0.4430.212 Safari/537.36",WebKit,Chrome,90.0.4430.212,Windows,10.0
178,1,null,null,html-keyboard-response,64,99941,0.0-64.0,IwAR2P93ukWaKHwC_Dv2xM2_QyXpS_Zdem4Mu0vLX7sSNZl_z6qElJ0VK5qAo,"
    <img id = 'img_b1' width = 18% height = 32% style = 'position:absolute;top:10%;left:25%'>
    <img id = 'img_b2' width = 18% height = 32% style = 'position:absolute;top:10%;right:25%'>
    <img id = 'img_b3' width = 18% height = 32% style = 'position:absolute;bottom:10%;left:25%'>
    <img id = 'img_b4' width = 18% height = 32% style = 'position:absolute;bottom:10%;right:25%'>
    <div id = 'band_txt'></div>
    <div id = 'cum' style = 'position:absolute;top:5%;right:5%;font-size:calc(18px + 6 * ((100vw - 320px) / 680))'></div>
  ","""","""","""","""","""","""","""","""","""","2021-05-16 20:36:12",27.63.157.77,"Mozilla/5.0 (Windows NT 10.0; Win64; x64) AppleWebKit/537.36 (KHTML, like Gecko) Chrome/90.0.4430.212 Safari/537.36",WebKit,Chrome,90.0.4430.212,Windows,10.0
178,1,null,null,html-keyboard-response,65,100704,0.0-65.0,IwAR2P93ukWaKHwC_Dv2xM2_QyXpS_Zdem4Mu0vLX7sSNZl_z6qElJ0VK5qAo,"<div style=""font-size:60px;"">+</div>","""","""","""","""","""","""","""","""","""","2021-05-16 20:36:12",27.63.157.77,"Mozilla/5.0 (Windows NT 10.0; Win64; x64) AppleWebKit/537.36 (KHTML, like Gecko) Chrome/90.0.4430.212 Safari/537.36",WebKit,Chrome,90.0.4430.212,Windows,10.0
178,1,460.08500014431775,m,html-keyboard-response,66,101166,0.0-66.0,IwAR2P93ukWaKHwC_Dv2xM2_QyXpS_Zdem4Mu0vLX7sSNZl_z6qElJ0VK5qAo,"
    <img id = 'img_b1' width = 18% height = 32% style = 'position:absolute;top:10%;left:25%'>
    <img id = 'img_b2' width = 18% height = 32% style = 'position:absolute;top:10%;right:25%'>
    <img id = 'img_b3' width = 18% height = 32% style = 'position:absolute;bottom:10%;left:25%'>
    <img id = 'img_b4' width = 18% height = 32% style = 'position:absolute;bottom:10%;right:25%'>
    <div id = 'cum' style = 'position:absolute;top:5%;right:5%;font-size:calc(18px + 6 * ((100vw - 320px) / 680))'></div>
  ","""","""","""","""","""","""","""","""","""","2021-05-16 20:36:12",27.63.157.77,"Mozilla/5.0 (Windows NT 10.0; Win64; x64) AppleWebKit/537.36 (KHTML, like Gecko) Chrome/90.0.4430.212 Safari/537.36",WebKit,Chrome,90.0.4430.212,Windows,10.0
178,1,null,null,html-keyboard-response,67,102671,0.0-67.0,IwAR2P93ukWaKHwC_Dv2xM2_QyXpS_Zdem4Mu0vLX7sSNZl_z6qElJ0VK5qAo,"
    <img id = 'img_b1' width = 18% height = 32% style = 'position:absolute;top:10%;left:25%'>
    <img id = 'img_b2' width = 18% height = 32% style = 'position:absolute;top:10%;right:25%'>
    <img id = 'img_b3' width = 18% height = 32% style = 'position:absolute;bottom:10%;left:25%'>
    <img id = 'img_b4' width = 18% height = 32% style = 'position:absolute;bottom:10%;right:25%'>
    <div id = 'band_txt'></div>
    <div id = 'cum' style = 'position:absolute;top:5%;right:5%;font-size:calc(18px + 6 * ((100vw - 320px) / 680))'></div>
  ","""","""","""","""","""","""","""","""","""","2021-05-16 20:36:12",27.63.157.77,"Mozilla/5.0 (Windows NT 10.0; Win64; x64) AppleWebKit/537.36 (KHTML, like Gecko) Chrome/90.0.4430.212 Safari/537.36",WebKit,Chrome,90.0.4430.212,Windows,10.0
178,1,null,null,html-keyboard-response,68,103672,0.0-68.0,IwAR2P93ukWaKHwC_Dv2xM2_QyXpS_Zdem4Mu0vLX7sSNZl_z6qElJ0VK5qAo,"<div style=""font-size:60px;"">+</div>","""","""","""","""","""","""","""","""","""","2021-05-16 20:36:12",27.63.157.77,"Mozilla/5.0 (Windows NT 10.0; Win64; x64) AppleWebKit/537.36 (KHTML, like Gecko) Chrome/90.0.4430.212 Safari/537.36",WebKit,Chrome,90.0.4430.212,Windows,10.0
178,1,408.70500006712973,m,html-keyboard-response,69,104083,0.0-69.0,IwAR2P93ukWaKHwC_Dv2xM2_QyXpS_Zdem4Mu0vLX7sSNZl_z6qElJ0VK5qAo,"
    <img id = 'img_b1' width = 18% height = 32% style = 'position:absolute;top:10%;left:25%'>
    <img id = 'img_b2' width = 18% height = 32% style = 'position:absolute;top:10%;right:25%'>
    <img id = 'img_b3' width = 18% height = 32% style = 'position:absolute;bottom:10%;left:25%'>
    <img id = 'img_b4' width = 18% height = 32% style = 'position:absolute;bottom:10%;right:25%'>
    <div id = 'cum' style = 'position:absolute;top:5%;right:5%;font-size:calc(18px + 6 * ((100vw - 320px) / 680))'></div>
  ","""","""","""","""","""","""","""","""","""","2021-05-16 20:36:12",27.63.157.77,"Mozilla/5.0 (Windows NT 10.0; Win64; x64) AppleWebKit/537.36 (KHTML, like Gecko) Chrome/90.0.4430.212 Safari/537.36",WebKit,Chrome,90.0.4430.212,Windows,10.0
178,1,null,null,html-keyboard-response,70,105601,0.0-70.0,IwAR2P93ukWaKHwC_Dv2xM2_QyXpS_Zdem4Mu0vLX7sSNZl_z6qElJ0VK5qAo,"
    <img id = 'img_b1' width = 18% height = 32% style = 'position:absolute;top:10%;left:25%'>
    <img id = 'img_b2' width = 18% height = 32% style = 'position:absolute;top:10%;right:25%'>
    <img id = 'img_b3' width = 18% height = 32% style = 'position:absolute;bottom:10%;left:25%'>
    <img id = 'img_b4' width = 18% height = 32% style = 'position:absolute;bottom:10%;right:25%'>
    <div id = 'band_txt'></div>
    <div id = 'cum' style = 'position:absolute;top:5%;right:5%;font-size:calc(18px + 6 * ((100vw - 320px) / 680))'></div>
  ","""","""","""","""","""","""","""","""","""","2021-05-16 20:36:12",27.63.157.77,"Mozilla/5.0 (Windows NT 10.0; Win64; x64) AppleWebKit/537.36 (KHTML, like Gecko) Chrome/90.0.4430.212 Safari/537.36",WebKit,Chrome,90.0.4430.212,Windows,10.0
178,1,null,null,html-keyboard-response,71,106613,0.0-71.0,IwAR2P93ukWaKHwC_Dv2xM2_QyXpS_Zdem4Mu0vLX7sSNZl_z6qElJ0VK5qAo,"<div style=""font-size:60px;"">+</div>","""","""","""","""","""","""","""","""","""","2021-05-16 20:36:12",27.63.157.77,"Mozilla/5.0 (Windows NT 10.0; Win64; x64) AppleWebKit/537.36 (KHTML, like Gecko) Chrome/90.0.4430.212 Safari/537.36",WebKit,Chrome,90.0.4430.212,Windows,10.0
178,1,596.665000077337,m,html-keyboard-response,72,107212,0.0-72.0,IwAR2P93ukWaKHwC_Dv2xM2_QyXpS_Zdem4Mu0vLX7sSNZl_z6qElJ0VK5qAo,"
    <img id = 'img_b1' width = 18% height = 32% style = 'position:absolute;top:10%;left:25%'>
    <img id = 'img_b2' width = 18% height = 32% style = 'position:absolute;top:10%;right:25%'>
    <img id = 'img_b3' width = 18% height = 32% style = 'position:absolute;bottom:10%;left:25%'>
    <img id = 'img_b4' width = 18% height = 32% style = 'position:absolute;bottom:10%;right:25%'>
    <div id = 'cum' style = 'position:absolute;top:5%;right:5%;font-size:calc(18px + 6 * ((100vw - 320px) / 680))'></div>
  ","""","""","""","""","""","""","""","""","""","2021-05-16 20:36:12",27.63.157.77,"Mozilla/5.0 (Windows NT 10.0; Win64; x64) AppleWebKit/537.36 (KHTML, like Gecko) Chrome/90.0.4430.212 Safari/537.36",WebKit,Chrome,90.0.4430.212,Windows,10.0
178,1,null,null,html-keyboard-response,73,108720,0.0-73.0,IwAR2P93ukWaKHwC_Dv2xM2_QyXpS_Zdem4Mu0vLX7sSNZl_z6qElJ0VK5qAo,"
    <img id = 'img_b1' width = 18% height = 32% style = 'position:absolute;top:10%;left:25%'>
    <img id = 'img_b2' width = 18% height = 32% style = 'position:absolute;top:10%;right:25%'>
    <img id = 'img_b3' width = 18% height = 32% style = 'position:absolute;bottom:10%;left:25%'>
    <img id = 'img_b4' width = 18% height = 32% style = 'position:absolute;bottom:10%;right:25%'>
    <div id = 'band_txt'></div>
    <div id = 'cum' style = 'position:absolute;top:5%;right:5%;font-size:calc(18px + 6 * ((100vw - 320px) / 680))'></div>
  ","""","""","""","""","""","""","""","""","""","2021-05-16 20:36:12",27.63.157.77,"Mozilla/5.0 (Windows NT 10.0; Win64; x64) AppleWebKit/537.36 (KHTML, like Gecko) Chrome/90.0.4430.212 Safari/537.36",WebKit,Chrome,90.0.4430.212,Windows,10.0
178,1,null,null,html-keyboard-response,74,110234,0.0-74.0,IwAR2P93ukWaKHwC_Dv2xM2_QyXpS_Zdem4Mu0vLX7sSNZl_z6qElJ0VK5qAo,"<div style=""font-size:60px;"">+</div>","""","""","""","""","""","""","""","""","""","2021-05-16 20:36:12",27.63.157.77,"Mozilla/5.0 (Windows NT 10.0; Win64; x64) AppleWebKit/537.36 (KHTML, like Gecko) Chrome/90.0.4430.212 Safari/537.36",WebKit,Chrome,90.0.4430.212,Windows,10.0
178,1,1277.8000000398606,m,html-keyboard-response,75,111513,0.0-75.0,IwAR2P93ukWaKHwC_Dv2xM2_QyXpS_Zdem4Mu0vLX7sSNZl_z6qElJ0VK5qAo,"
    <img id = 'img_b1' width = 18% height = 32% style = 'position:absolute;top:10%;left:25%'>
    <img id = 'img_b2' width = 18% height = 32% style = 'position:absolute;top:10%;right:25%'>
    <img id = 'img_b3' width = 18% height = 32% style = 'position:absolute;bottom:10%;left:25%'>
    <img id = 'img_b4' width = 18% height = 32% style = 'position:absolute;bottom:10%;right:25%'>
    <div id = 'cum' style = 'position:absolute;top:5%;right:5%;font-size:calc(18px + 6 * ((100vw - 320px) / 680))'></div>
  ","""","""","""","""","""","""","""","""","""","2021-05-16 20:36:12",27.63.157.77,"Mozilla/5.0 (Windows NT 10.0; Win64; x64) AppleWebKit/537.36 (KHTML, like Gecko) Chrome/90.0.4430.212 Safari/537.36",WebKit,Chrome,90.0.4430.212,Windows,10.0
178,1,null,null,html-keyboard-response,76,113021,0.0-76.0,IwAR2P93ukWaKHwC_Dv2xM2_QyXpS_Zdem4Mu0vLX7sSNZl_z6qElJ0VK5qAo,"
    <img id = 'img_b1' width = 18% height = 32% style = 'position:absolute;top:10%;left:25%'>
    <img id = 'img_b2' width = 18% height = 32% style = 'position:absolute;top:10%;right:25%'>
    <img id = 'img_b3' width = 18% height = 32% style = 'position:absolute;bottom:10%;left:25%'>
    <img id = 'img_b4' width = 18% height = 32% style = 'position:absolute;bottom:10%;right:25%'>
    <div id = 'band_txt'></div>
    <div id = 'cum' style = 'position:absolute;top:5%;right:5%;font-size:calc(18px + 6 * ((100vw - 320px) / 680))'></div>
  ","""","""","""","""","""","""","""","""","""","2021-05-16 20:36:12",27.63.157.77,"Mozilla/5.0 (Windows NT 10.0; Win64; x64) AppleWebKit/537.36 (KHTML, like Gecko) Chrome/90.0.4430.212 Safari/537.36",WebKit,Chrome,90.0.4430.212,Windows,10.0
178,1,null,null,html-keyboard-response,77,113783,0.0-77.0,IwAR2P93ukWaKHwC_Dv2xM2_QyXpS_Zdem4Mu0vLX7sSNZl_z6qElJ0VK5qAo,"<div style=""font-size:60px;"">+</div>","""","""","""","""","""","""","""","""","""","2021-05-16 20:36:12",27.63.157.77,"Mozilla/5.0 (Windows NT 10.0; Win64; x64) AppleWebKit/537.36 (KHTML, like Gecko) Chrome/90.0.4430.212 Safari/537.36",WebKit,Chrome,90.0.4430.212,Windows,10.0
178,1,997.7249999064952,m,html-keyboard-response,78,114782,0.0-78.0,IwAR2P93ukWaKHwC_Dv2xM2_QyXpS_Zdem4Mu0vLX7sSNZl_z6qElJ0VK5qAo,"
    <img id = 'img_b1' width = 18% height = 32% style = 'position:absolute;top:10%;left:25%'>
    <img id = 'img_b2' width = 18% height = 32% style = 'position:absolute;top:10%;right:25%'>
    <img id = 'img_b3' width = 18% height = 32% style = 'position:absolute;bottom:10%;left:25%'>
    <img id = 'img_b4' width = 18% height = 32% style = 'position:absolute;bottom:10%;right:25%'>
    <div id = 'cum' style = 'position:absolute;top:5%;right:5%;font-size:calc(18px + 6 * ((100vw - 320px) / 680))'></div>
  ","""","""","""","""","""","""","""","""","""","2021-05-16 20:36:12",27.63.157.77,"Mozilla/5.0 (Windows NT 10.0; Win64; x64) AppleWebKit/537.36 (KHTML, like Gecko) Chrome/90.0.4430.212 Safari/537.36",WebKit,Chrome,90.0.4430.212,Windows,10.0
178,1,null,null,html-keyboard-response,79,116296,0.0-79.0,IwAR2P93ukWaKHwC_Dv2xM2_QyXpS_Zdem4Mu0vLX7sSNZl_z6qElJ0VK5qAo,"
    <img id = 'img_b1' width = 18% height = 32% style = 'position:absolute;top:10%;left:25%'>
    <img id = 'img_b2' width = 18% height = 32% style = 'position:absolute;top:10%;right:25%'>
    <img id = 'img_b3' width = 18% height = 32% style = 'position:absolute;bottom:10%;left:25%'>
    <img id = 'img_b4' width = 18% height = 32% style = 'position:absolute;bottom:10%;right:25%'>
    <div id = 'band_txt'></div>
    <div id = 'cum' style = 'position:absolute;top:5%;right:5%;font-size:calc(18px + 6 * ((100vw - 320px) / 680))'></div>
  ","""","""","""","""","""","""","""","""","""","2021-05-16 20:36:12",27.63.157.77,"Mozilla/5.0 (Windows NT 10.0; Win64; x64) AppleWebKit/537.36 (KHTML, like Gecko) Chrome/90.0.4430.212 Safari/537.36",WebKit,Chrome,90.0.4430.212,Windows,10.0
178,1,null,null,html-keyboard-response,80,118062,0.0-80.0,IwAR2P93ukWaKHwC_Dv2xM2_QyXpS_Zdem4Mu0vLX7sSNZl_z6qElJ0VK5qAo,"<div style=""font-size:60px;"">+</div>","""","""","""","""","""","""","""","""","""","2021-05-16 20:36:12",27.63.157.77,"Mozilla/5.0 (Windows NT 10.0; Win64; x64) AppleWebKit/537.36 (KHTML, like Gecko) Chrome/90.0.4430.212 Safari/537.36",WebKit,Chrome,90.0.4430.212,Windows,10.0
178,1,3202.4650000967085,m,html-keyboard-response,81,121270,0.0-81.0,IwAR2P93ukWaKHwC_Dv2xM2_QyXpS_Zdem4Mu0vLX7sSNZl_z6qElJ0VK5qAo,"
    <img id = 'img_b1' width = 18% height = 32% style = 'position:absolute;top:10%;left:25%'>
    <img id = 'img_b2' width = 18% height = 32% style = 'position:absolute;top:10%;right:25%'>
    <img id = 'img_b3' width = 18% height = 32% style = 'position:absolute;bottom:10%;left:25%'>
    <img id = 'img_b4' width = 18% height = 32% style = 'position:absolute;bottom:10%;right:25%'>
    <div id = 'cum' style = 'position:absolute;top:5%;right:5%;font-size:calc(18px + 6 * ((100vw - 320px) / 680))'></div>
  ","""","""","""","""","""","""","""","""","""","2021-05-16 20:36:12",27.63.157.77,"Mozilla/5.0 (Windows NT 10.0; Win64; x64) AppleWebKit/537.36 (KHTML, like Gecko) Chrome/90.0.4430.212 Safari/537.36",WebKit,Chrome,90.0.4430.212,Windows,10.0
178,1,null,null,html-keyboard-response,82,122787,0.0-82.0,IwAR2P93ukWaKHwC_Dv2xM2_QyXpS_Zdem4Mu0vLX7sSNZl_z6qElJ0VK5qAo,"
    <img id = 'img_b1' width = 18% height = 32% style = 'position:absolute;top:10%;left:25%'>
    <img id = 'img_b2' width = 18% height = 32% style = 'position:absolute;top:10%;right:25%'>
    <img id = 'img_b3' width = 18% height = 32% style = 'position:absolute;bottom:10%;left:25%'>
    <img id = 'img_b4' width = 18% height = 32% style = 'position:absolute;bottom:10%;right:25%'>
    <div id = 'band_txt'></div>
    <div id = 'cum' style = 'position:absolute;top:5%;right:5%;font-size:calc(18px + 6 * ((100vw - 320px) / 680))'></div>
  ","""","""","""","""","""","""","""","""","""","2021-05-16 20:36:12",27.63.157.77,"Mozilla/5.0 (Windows NT 10.0; Win64; x64) AppleWebKit/537.36 (KHTML, like Gecko) Chrome/90.0.4430.212 Safari/537.36",WebKit,Chrome,90.0.4430.212,Windows,10.0
178,1,null,null,html-keyboard-response,83,123797,0.0-83.0,IwAR2P93ukWaKHwC_Dv2xM2_QyXpS_Zdem4Mu0vLX7sSNZl_z6qElJ0VK5qAo,"<div style=""font-size:60px;"">+</div>","""","""","""","""","""","""","""","""","""","2021-05-16 20:36:12",27.63.157.77,"Mozilla/5.0 (Windows NT 10.0; Win64; x64) AppleWebKit/537.36 (KHTML, like Gecko) Chrome/90.0.4430.212 Safari/537.36",WebKit,Chrome,90.0.4430.212,Windows,10.0
178,1,1955.5099999997765,m,html-keyboard-response,84,125762,0.0-84.0,IwAR2P93ukWaKHwC_Dv2xM2_QyXpS_Zdem4Mu0vLX7sSNZl_z6qElJ0VK5qAo,"
    <img id = 'img_b1' width = 18% height = 32% style = 'position:absolute;top:10%;left:25%'>
    <img id = 'img_b2' width = 18% height = 32% style = 'position:absolute;top:10%;right:25%'>
    <img id = 'img_b3' width = 18% height = 32% style = 'position:absolute;bottom:10%;left:25%'>
    <img id = 'img_b4' width = 18% height = 32% style = 'position:absolute;bottom:10%;right:25%'>
    <div id = 'cum' style = 'position:absolute;top:5%;right:5%;font-size:calc(18px + 6 * ((100vw - 320px) / 680))'></div>
  ","""","""","""","""","""","""","""","""","""","2021-05-16 20:36:12",27.63.157.77,"Mozilla/5.0 (Windows NT 10.0; Win64; x64) AppleWebKit/537.36 (KHTML, like Gecko) Chrome/90.0.4430.212 Safari/537.36",WebKit,Chrome,90.0.4430.212,Windows,10.0
178,1,null,null,html-keyboard-response,85,127274,0.0-85.0,IwAR2P93ukWaKHwC_Dv2xM2_QyXpS_Zdem4Mu0vLX7sSNZl_z6qElJ0VK5qAo,"
    <img id = 'img_b1' width = 18% height = 32% style = 'position:absolute;top:10%;left:25%'>
    <img id = 'img_b2' width = 18% height = 32% style = 'position:absolute;top:10%;right:25%'>
    <img id = 'img_b3' width = 18% height = 32% style = 'position:absolute;bottom:10%;left:25%'>
    <img id = 'img_b4' width = 18% height = 32% style = 'position:absolute;bottom:10%;right:25%'>
    <div id = 'band_txt'></div>
    <div id = 'cum' style = 'position:absolute;top:5%;right:5%;font-size:calc(18px + 6 * ((100vw - 320px) / 680))'></div>
  ","""","""","""","""","""","""","""","""","""","2021-05-16 20:36:12",27.63.157.77,"Mozilla/5.0 (Windows NT 10.0; Win64; x64) AppleWebKit/537.36 (KHTML, like Gecko) Chrome/90.0.4430.212 Safari/537.36",WebKit,Chrome,90.0.4430.212,Windows,10.0
178,1,null,null,html-keyboard-response,86,128776,0.0-86.0,IwAR2P93ukWaKHwC_Dv2xM2_QyXpS_Zdem4Mu0vLX7sSNZl_z6qElJ0VK5qAo,"<div style=""font-size:60px;"">+</div>","""","""","""","""","""","""","""","""","""","2021-05-16 20:36:12",27.63.157.77,"Mozilla/5.0 (Windows NT 10.0; Win64; x64) AppleWebKit/537.36 (KHTML, like Gecko) Chrome/90.0.4430.212 Safari/537.36",WebKit,Chrome,90.0.4430.212,Windows,10.0
178,1,1304.7599999699742,m,html-keyboard-response,87,130083,0.0-87.0,IwAR2P93ukWaKHwC_Dv2xM2_QyXpS_Zdem4Mu0vLX7sSNZl_z6qElJ0VK5qAo,"
    <img id = 'img_b1' width = 18% height = 32% style = 'position:absolute;top:10%;left:25%'>
    <img id = 'img_b2' width = 18% height = 32% style = 'position:absolute;top:10%;right:25%'>
    <img id = 'img_b3' width = 18% height = 32% style = 'position:absolute;bottom:10%;left:25%'>
    <img id = 'img_b4' width = 18% height = 32% style = 'position:absolute;bottom:10%;right:25%'>
    <div id = 'cum' style = 'position:absolute;top:5%;right:5%;font-size:calc(18px + 6 * ((100vw - 320px) / 680))'></div>
  ","""","""","""","""","""","""","""","""","""","2021-05-16 20:36:12",27.63.157.77,"Mozilla/5.0 (Windows NT 10.0; Win64; x64) AppleWebKit/537.36 (KHTML, like Gecko) Chrome/90.0.4430.212 Safari/537.36",WebKit,Chrome,90.0.4430.212,Windows,10.0
178,1,null,null,html-keyboard-response,88,131599,0.0-88.0,IwAR2P93ukWaKHwC_Dv2xM2_QyXpS_Zdem4Mu0vLX7sSNZl_z6qElJ0VK5qAo,"
    <img id = 'img_b1' width = 18% height = 32% style = 'position:absolute;top:10%;left:25%'>
    <img id = 'img_b2' width = 18% height = 32% style = 'position:absolute;top:10%;right:25%'>
    <img id = 'img_b3' width = 18% height = 32% style = 'position:absolute;bottom:10%;left:25%'>
    <img id = 'img_b4' width = 18% height = 32% style = 'position:absolute;bottom:10%;right:25%'>
    <div id = 'band_txt'></div>
    <div id = 'cum' style = 'position:absolute;top:5%;right:5%;font-size:calc(18px + 6 * ((100vw - 320px) / 680))'></div>
  ","""","""","""","""","""","""","""","""","""","2021-05-16 20:36:12",27.63.157.77,"Mozilla/5.0 (Windows NT 10.0; Win64; x64) AppleWebKit/537.36 (KHTML, like Gecko) Chrome/90.0.4430.212 Safari/537.36",WebKit,Chrome,90.0.4430.212,Windows,10.0
178,1,null,null,html-keyboard-response,89,133107,0.0-89.0,IwAR2P93ukWaKHwC_Dv2xM2_QyXpS_Zdem4Mu0vLX7sSNZl_z6qElJ0VK5qAo,"<div style=""font-size:60px;"">+</div>","""","""","""","""","""","""","""","""","""","2021-05-16 20:36:12",27.63.157.77,"Mozilla/5.0 (Windows NT 10.0; Win64; x64) AppleWebKit/537.36 (KHTML, like Gecko) Chrome/90.0.4430.212 Safari/537.36",WebKit,Chrome,90.0.4430.212,Windows,10.0
178,1,564.8449999280274,m,html-keyboard-response,90,133674,0.0-90.0,IwAR2P93ukWaKHwC_Dv2xM2_QyXpS_Zdem4Mu0vLX7sSNZl_z6qElJ0VK5qAo,"
    <img id = 'img_b1' width = 18% height = 32% style = 'position:absolute;top:10%;left:25%'>
    <img id = 'img_b2' width = 18% height = 32% style = 'position:absolute;top:10%;right:25%'>
    <img id = 'img_b3' width = 18% height = 32% style = 'position:absolute;bottom:10%;left:25%'>
    <img id = 'img_b4' width = 18% height = 32% style = 'position:absolute;bottom:10%;right:25%'>
    <div id = 'cum' style = 'position:absolute;top:5%;right:5%;font-size:calc(18px + 6 * ((100vw - 320px) / 680))'></div>
  ","""","""","""","""","""","""","""","""","""","2021-05-16 20:36:12",27.63.157.77,"Mozilla/5.0 (Windows NT 10.0; Win64; x64) AppleWebKit/537.36 (KHTML, like Gecko) Chrome/90.0.4430.212 Safari/537.36",WebKit,Chrome,90.0.4430.212,Windows,10.0
178,1,null,null,html-keyboard-response,91,135178,0.0-91.0,IwAR2P93ukWaKHwC_Dv2xM2_QyXpS_Zdem4Mu0vLX7sSNZl_z6qElJ0VK5qAo,"
    <img id = 'img_b1' width = 18% height = 32% style = 'position:absolute;top:10%;left:25%'>
    <img id = 'img_b2' width = 18% height = 32% style = 'position:absolute;top:10%;right:25%'>
    <img id = 'img_b3' width = 18% height = 32% style = 'position:absolute;bottom:10%;left:25%'>
    <img id = 'img_b4' width = 18% height = 32% style = 'position:absolute;bottom:10%;right:25%'>
    <div id = 'band_txt'></div>
    <div id = 'cum' style = 'position:absolute;top:5%;right:5%;font-size:calc(18px + 6 * ((100vw - 320px) / 680))'></div>
  ","""","""","""","""","""","""","""","""","""","2021-05-16 20:36:12",27.63.157.77,"Mozilla/5.0 (Windows NT 10.0; Win64; x64) AppleWebKit/537.36 (KHTML, like Gecko) Chrome/90.0.4430.212 Safari/537.36",WebKit,Chrome,90.0.4430.212,Windows,10.0
178,1,null,null,html-keyboard-response,92,136436,0.0-92.0,IwAR2P93ukWaKHwC_Dv2xM2_QyXpS_Zdem4Mu0vLX7sSNZl_z6qElJ0VK5qAo,"<div style=""font-size:60px;"">+</div>","""","""","""","""","""","""","""","""","""","2021-05-16 20:36:12",27.63.157.77,"Mozilla/5.0 (Windows NT 10.0; Win64; x64) AppleWebKit/537.36 (KHTML, like Gecko) Chrome/90.0.4430.212 Safari/537.36",WebKit,Chrome,90.0.4430.212,Windows,10.0
178,1,701.839999994263,m,html-keyboard-response,93,137146,0.0-93.0,IwAR2P93ukWaKHwC_Dv2xM2_QyXpS_Zdem4Mu0vLX7sSNZl_z6qElJ0VK5qAo,"
    <img id = 'img_b1' width = 18% height = 32% style = 'position:absolute;top:10%;left:25%'>
    <img id = 'img_b2' width = 18% height = 32% style = 'position:absolute;top:10%;right:25%'>
    <img id = 'img_b3' width = 18% height = 32% style = 'position:absolute;bottom:10%;left:25%'>
    <img id = 'img_b4' width = 18% height = 32% style = 'position:absolute;bottom:10%;right:25%'>
    <div id = 'cum' style = 'position:absolute;top:5%;right:5%;font-size:calc(18px + 6 * ((100vw - 320px) / 680))'></div>
  ","""","""","""","""","""","""","""","""","""","2021-05-16 20:36:12",27.63.157.77,"Mozilla/5.0 (Windows NT 10.0; Win64; x64) AppleWebKit/537.36 (KHTML, like Gecko) Chrome/90.0.4430.212 Safari/537.36",WebKit,Chrome,90.0.4430.212,Windows,10.0
178,1,null,null,html-keyboard-response,94,138661,0.0-94.0,IwAR2P93ukWaKHwC_Dv2xM2_QyXpS_Zdem4Mu0vLX7sSNZl_z6qElJ0VK5qAo,"
    <img id = 'img_b1' width = 18% height = 32% style = 'position:absolute;top:10%;left:25%'>
    <img id = 'img_b2' width = 18% height = 32% style = 'position:absolute;top:10%;right:25%'>
    <img id = 'img_b3' width = 18% height = 32% style = 'position:absolute;bottom:10%;left:25%'>
    <img id = 'img_b4' width = 18% height = 32% style = 'position:absolute;bottom:10%;right:25%'>
    <div id = 'band_txt'></div>
    <div id = 'cum' style = 'position:absolute;top:5%;right:5%;font-size:calc(18px + 6 * ((100vw - 320px) / 680))'></div>
  ","""","""","""","""","""","""","""","""","""","2021-05-16 20:36:12",27.63.157.77,"Mozilla/5.0 (Windows NT 10.0; Win64; x64) AppleWebKit/537.36 (KHTML, like Gecko) Chrome/90.0.4430.212 Safari/537.36",WebKit,Chrome,90.0.4430.212,Windows,10.0
178,1,null,null,html-keyboard-response,95,139667,0.0-95.0,IwAR2P93ukWaKHwC_Dv2xM2_QyXpS_Zdem4Mu0vLX7sSNZl_z6qElJ0VK5qAo,"<div style=""font-size:60px;"">+</div>","""","""","""","""","""","""","""","""","""","2021-05-16 20:36:12",27.63.157.77,"Mozilla/5.0 (Windows NT 10.0; Win64; x64) AppleWebKit/537.36 (KHTML, like Gecko) Chrome/90.0.4430.212 Safari/537.36",WebKit,Chrome,90.0.4430.212,Windows,10.0
178,1,1212.1550000738353,m,html-keyboard-response,96,140881,0.0-96.0,IwAR2P93ukWaKHwC_Dv2xM2_QyXpS_Zdem4Mu0vLX7sSNZl_z6qElJ0VK5qAo,"
    <img id = 'img_b1' width = 18% height = 32% style = 'position:absolute;top:10%;left:25%'>
    <img id = 'img_b2' width = 18% height = 32% style = 'position:absolute;top:10%;right:25%'>
    <img id = 'img_b3' width = 18% height = 32% style = 'position:absolute;bottom:10%;left:25%'>
    <img id = 'img_b4' width = 18% height = 32% style = 'position:absolute;bottom:10%;right:25%'>
    <div id = 'cum' style = 'position:absolute;top:5%;right:5%;font-size:calc(18px + 6 * ((100vw - 320px) / 680))'></div>
  ","""","""","""","""","""","""","""","""","""","2021-05-16 20:36:12",27.63.157.77,"Mozilla/5.0 (Windows NT 10.0; Win64; x64) AppleWebKit/537.36 (KHTML, like Gecko) Chrome/90.0.4430.212 Safari/537.36",WebKit,Chrome,90.0.4430.212,Windows,10.0
178,1,null,null,html-keyboard-response,97,142396,0.0-97.0,IwAR2P93ukWaKHwC_Dv2xM2_QyXpS_Zdem4Mu0vLX7sSNZl_z6qElJ0VK5qAo,"
    <img id = 'img_b1' width = 18% height = 32% style = 'position:absolute;top:10%;left:25%'>
    <img id = 'img_b2' width = 18% height = 32% style = 'position:absolute;top:10%;right:25%'>
    <img id = 'img_b3' width = 18% height = 32% style = 'position:absolute;bottom:10%;left:25%'>
    <img id = 'img_b4' width = 18% height = 32% style = 'position:absolute;bottom:10%;right:25%'>
    <div id = 'band_txt'></div>
    <div id = 'cum' style = 'position:absolute;top:5%;right:5%;font-size:calc(18px + 6 * ((100vw - 320px) / 680))'></div>
  ","""","""","""","""","""","""","""","""","""","2021-05-16 20:36:12",27.63.157.77,"Mozilla/5.0 (Windows NT 10.0; Win64; x64) AppleWebKit/537.36 (KHTML, like Gecko) Chrome/90.0.4430.212 Safari/537.36",WebKit,Chrome,90.0.4430.212,Windows,10.0
178,1,null,null,html-keyboard-response,98,143657,0.0-98.0,IwAR2P93ukWaKHwC_Dv2xM2_QyXpS_Zdem4Mu0vLX7sSNZl_z6qElJ0VK5qAo,"<div style=""font-size:60px;"">+</div>","""","""","""","""","""","""","""","""","""","2021-05-16 20:36:12",27.63.157.77,"Mozilla/5.0 (Windows NT 10.0; Win64; x64) AppleWebKit/537.36 (KHTML, like Gecko) Chrome/90.0.4430.212 Safari/537.36",WebKit,Chrome,90.0.4430.212,Windows,10.0
178,1,659.0650000143796,p,html-keyboard-response,99,144318,0.0-99.0,IwAR2P93ukWaKHwC_Dv2xM2_QyXpS_Zdem4Mu0vLX7sSNZl_z6qElJ0VK5qAo,"
    <img id = 'img_b1' width = 18% height = 32% style = 'position:absolute;top:10%;left:25%'>
    <img id = 'img_b2' width = 18% height = 32% style = 'position:absolute;top:10%;right:25%'>
    <img id = 'img_b3' width = 18% height = 32% style = 'position:absolute;bottom:10%;left:25%'>
    <img id = 'img_b4' width = 18% height = 32% style = 'position:absolute;bottom:10%;right:25%'>
    <div id = 'cum' style = 'position:absolute;top:5%;right:5%;font-size:calc(18px + 6 * ((100vw - 320px) / 680))'></div>
  ","""","""","""","""","""","""","""","""","""","2021-05-16 20:36:12",27.63.157.77,"Mozilla/5.0 (Windows NT 10.0; Win64; x64) AppleWebKit/537.36 (KHTML, like Gecko) Chrome/90.0.4430.212 Safari/537.36",WebKit,Chrome,90.0.4430.212,Windows,10.0
178,1,null,null,html-keyboard-response,100,145836,0.0-100.0,IwAR2P93ukWaKHwC_Dv2xM2_QyXpS_Zdem4Mu0vLX7sSNZl_z6qElJ0VK5qAo,"
    <img id = 'img_b1' width = 18% height = 32% style = 'position:absolute;top:10%;left:25%'>
    <img id = 'img_b2' width = 18% height = 32% style = 'position:absolute;top:10%;right:25%'>
    <img id = 'img_b3' width = 18% height = 32% style = 'position:absolute;bottom:10%;left:25%'>
    <img id = 'img_b4' width = 18% height = 32% style = 'position:absolute;bottom:10%;right:25%'>
    <div id = 'band_txt'></div>
    <div id = 'cum' style = 'position:absolute;top:5%;right:5%;font-size:calc(18px + 6 * ((100vw - 320px) / 680))'></div>
  ","""","""","""","""","""","""","""","""","""","2021-05-16 20:36:12",27.63.157.77,"Mozilla/5.0 (Windows NT 10.0; Win64; x64) AppleWebKit/537.36 (KHTML, like Gecko) Chrome/90.0.4430.212 Safari/537.36",WebKit,Chrome,90.0.4430.212,Windows,10.0
178,1,null,null,html-keyboard-response,101,147100,0.0-101.0,IwAR2P93ukWaKHwC_Dv2xM2_QyXpS_Zdem4Mu0vLX7sSNZl_z6qElJ0VK5qAo,"<div style=""font-size:60px;"">+</div>","""","""","""","""","""","""","""","""","""","2021-05-16 20:36:12",27.63.157.77,"Mozilla/5.0 (Windows NT 10.0; Win64; x64) AppleWebKit/537.36 (KHTML, like Gecko) Chrome/90.0.4430.212 Safari/537.36",WebKit,Chrome,90.0.4430.212,Windows,10.0
178,1,557.5599998701364,q,html-keyboard-response,102,147660,0.0-102.0,IwAR2P93ukWaKHwC_Dv2xM2_QyXpS_Zdem4Mu0vLX7sSNZl_z6qElJ0VK5qAo,"
    <img id = 'img_b1' width = 18% height = 32% style = 'position:absolute;top:10%;left:25%'>
    <img id = 'img_b2' width = 18% height = 32% style = 'position:absolute;top:10%;right:25%'>
    <img id = 'img_b3' width = 18% height = 32% style = 'position:absolute;bottom:10%;left:25%'>
    <img id = 'img_b4' width = 18% height = 32% style = 'position:absolute;bottom:10%;right:25%'>
    <div id = 'cum' style = 'position:absolute;top:5%;right:5%;font-size:calc(18px + 6 * ((100vw - 320px) / 680))'></div>
  ","""","""","""","""","""","""","""","""","""","2021-05-16 20:36:12",27.63.157.77,"Mozilla/5.0 (Windows NT 10.0; Win64; x64) AppleWebKit/537.36 (KHTML, like Gecko) Chrome/90.0.4430.212 Safari/537.36",WebKit,Chrome,90.0.4430.212,Windows,10.0
178,1,null,null,html-keyboard-response,103,149174,0.0-103.0,IwAR2P93ukWaKHwC_Dv2xM2_QyXpS_Zdem4Mu0vLX7sSNZl_z6qElJ0VK5qAo,"
    <img id = 'img_b1' width = 18% height = 32% style = 'position:absolute;top:10%;left:25%'>
    <img id = 'img_b2' width = 18% height = 32% style = 'position:absolute;top:10%;right:25%'>
    <img id = 'img_b3' width = 18% height = 32% style = 'position:absolute;bottom:10%;left:25%'>
    <img id = 'img_b4' width = 18% height = 32% style = 'position:absolute;bottom:10%;right:25%'>
    <div id = 'band_txt'></div>
    <div id = 'cum' style = 'position:absolute;top:5%;right:5%;font-size:calc(18px + 6 * ((100vw - 320px) / 680))'></div>
  ","""","""","""","""","""","""","""","""","""","2021-05-16 20:36:12",27.63.157.77,"Mozilla/5.0 (Windows NT 10.0; Win64; x64) AppleWebKit/537.36 (KHTML, like Gecko) Chrome/90.0.4430.212 Safari/537.36",WebKit,Chrome,90.0.4430.212,Windows,10.0
178,1,null,null,html-keyboard-response,104,149938,0.0-104.0,IwAR2P93ukWaKHwC_Dv2xM2_QyXpS_Zdem4Mu0vLX7sSNZl_z6qElJ0VK5qAo,"<div style=""font-size:60px;"">+</div>","""","""","""","""","""","""","""","""","""","2021-05-16 20:36:12",27.63.157.77,"Mozilla/5.0 (Windows NT 10.0; Win64; x64) AppleWebKit/537.36 (KHTML, like Gecko) Chrome/90.0.4430.212 Safari/537.36",WebKit,Chrome,90.0.4430.212,Windows,10.0
178,1,347.6549999322742,z,html-keyboard-response,105,150288,0.0-105.0,IwAR2P93ukWaKHwC_Dv2xM2_QyXpS_Zdem4Mu0vLX7sSNZl_z6qElJ0VK5qAo,"
    <img id = 'img_b1' width = 18% height = 32% style = 'position:absolute;top:10%;left:25%'>
    <img id = 'img_b2' width = 18% height = 32% style = 'position:absolute;top:10%;right:25%'>
    <img id = 'img_b3' width = 18% height = 32% style = 'position:absolute;bottom:10%;left:25%'>
    <img id = 'img_b4' width = 18% height = 32% style = 'position:absolute;bottom:10%;right:25%'>
    <div id = 'cum' style = 'position:absolute;top:5%;right:5%;font-size:calc(18px + 6 * ((100vw - 320px) / 680))'></div>
  ","""","""","""","""","""","""","""","""","""","2021-05-16 20:36:12",27.63.157.77,"Mozilla/5.0 (Windows NT 10.0; Win64; x64) AppleWebKit/537.36 (KHTML, like Gecko) Chrome/90.0.4430.212 Safari/537.36",WebKit,Chrome,90.0.4430.212,Windows,10.0
178,1,null,null,html-keyboard-response,106,151792,0.0-106.0,IwAR2P93ukWaKHwC_Dv2xM2_QyXpS_Zdem4Mu0vLX7sSNZl_z6qElJ0VK5qAo,"
    <img id = 'img_b1' width = 18% height = 32% style = 'position:absolute;top:10%;left:25%'>
    <img id = 'img_b2' width = 18% height = 32% style = 'position:absolute;top:10%;right:25%'>
    <img id = 'img_b3' width = 18% height = 32% style = 'position:absolute;bottom:10%;left:25%'>
    <img id = 'img_b4' width = 18% height = 32% style = 'position:absolute;bottom:10%;right:25%'>
    <div id = 'band_txt'></div>
    <div id = 'cum' style = 'position:absolute;top:5%;right:5%;font-size:calc(18px + 6 * ((100vw - 320px) / 680))'></div>
  ","""","""","""","""","""","""","""","""","""","2021-05-16 20:36:12",27.63.157.77,"Mozilla/5.0 (Windows NT 10.0; Win64; x64) AppleWebKit/537.36 (KHTML, like Gecko) Chrome/90.0.4430.212 Safari/537.36",WebKit,Chrome,90.0.4430.212,Windows,10.0
178,1,null,null,html-keyboard-response,107,153304,0.0-107.0,IwAR2P93ukWaKHwC_Dv2xM2_QyXpS_Zdem4Mu0vLX7sSNZl_z6qElJ0VK5qAo,"<div style=""font-size:60px;"">+</div>","""","""","""","""","""","""","""","""","""","2021-05-16 20:36:12",27.63.157.77,"Mozilla/5.0 (Windows NT 10.0; Win64; x64) AppleWebKit/537.36 (KHTML, like Gecko) Chrome/90.0.4430.212 Safari/537.36",WebKit,Chrome,90.0.4430.212,Windows,10.0
178,1,338.4749998804182,m,html-keyboard-response,108,153643,0.0-108.0,IwAR2P93ukWaKHwC_Dv2xM2_QyXpS_Zdem4Mu0vLX7sSNZl_z6qElJ0VK5qAo,"
    <img id = 'img_b1' width = 18% height = 32% style = 'position:absolute;top:10%;left:25%'>
    <img id = 'img_b2' width = 18% height = 32% style = 'position:absolute;top:10%;right:25%'>
    <img id = 'img_b3' width = 18% height = 32% style = 'position:absolute;bottom:10%;left:25%'>
    <img id = 'img_b4' width = 18% height = 32% style = 'position:absolute;bottom:10%;right:25%'>
    <div id = 'cum' style = 'position:absolute;top:5%;right:5%;font-size:calc(18px + 6 * ((100vw - 320px) / 680))'></div>
  ","""","""","""","""","""","""","""","""","""","2021-05-16 20:36:12",27.63.157.77,"Mozilla/5.0 (Windows NT 10.0; Win64; x64) AppleWebKit/537.36 (KHTML, like Gecko) Chrome/90.0.4430.212 Safari/537.36",WebKit,Chrome,90.0.4430.212,Windows,10.0
178,1,null,null,html-keyboard-response,109,155148,0.0-109.0,IwAR2P93ukWaKHwC_Dv2xM2_QyXpS_Zdem4Mu0vLX7sSNZl_z6qElJ0VK5qAo,"
    <img id = 'img_b1' width = 18% height = 32% style = 'position:absolute;top:10%;left:25%'>
    <img id = 'img_b2' width = 18% height = 32% style = 'position:absolute;top:10%;right:25%'>
    <img id = 'img_b3' width = 18% height = 32% style = 'position:absolute;bottom:10%;left:25%'>
    <img id = 'img_b4' width = 18% height = 32% style = 'position:absolute;bottom:10%;right:25%'>
    <div id = 'band_txt'></div>
    <div id = 'cum' style = 'position:absolute;top:5%;right:5%;font-size:calc(18px + 6 * ((100vw - 320px) / 680))'></div>
  ","""","""","""","""","""","""","""","""","""","2021-05-16 20:36:12",27.63.157.77,"Mozilla/5.0 (Windows NT 10.0; Win64; x64) AppleWebKit/537.36 (KHTML, like Gecko) Chrome/90.0.4430.212 Safari/537.36",WebKit,Chrome,90.0.4430.212,Windows,10.0
178,1,null,null,html-keyboard-response,110,155908,0.0-110.0,IwAR2P93ukWaKHwC_Dv2xM2_QyXpS_Zdem4Mu0vLX7sSNZl_z6qElJ0VK5qAo,"<div style=""font-size:60px;"">+</div>","""","""","""","""","""","""","""","""","""","2021-05-16 20:36:12",27.63.157.77,"Mozilla/5.0 (Windows NT 10.0; Win64; x64) AppleWebKit/537.36 (KHTML, like Gecko) Chrome/90.0.4430.212 Safari/537.36",WebKit,Chrome,90.0.4430.212,Windows,10.0
178,1,629.7349999658763,m,html-keyboard-response,111,156539,0.0-111.0,IwAR2P93ukWaKHwC_Dv2xM2_QyXpS_Zdem4Mu0vLX7sSNZl_z6qElJ0VK5qAo,"
    <img id = 'img_b1' width = 18% height = 32% style = 'position:absolute;top:10%;left:25%'>
    <img id = 'img_b2' width = 18% height = 32% style = 'position:absolute;top:10%;right:25%'>
    <img id = 'img_b3' width = 18% height = 32% style = 'position:absolute;bottom:10%;left:25%'>
    <img id = 'img_b4' width = 18% height = 32% style = 'position:absolute;bottom:10%;right:25%'>
    <div id = 'cum' style = 'position:absolute;top:5%;right:5%;font-size:calc(18px + 6 * ((100vw - 320px) / 680))'></div>
  ","""","""","""","""","""","""","""","""","""","2021-05-16 20:36:12",27.63.157.77,"Mozilla/5.0 (Windows NT 10.0; Win64; x64) AppleWebKit/537.36 (KHTML, like Gecko) Chrome/90.0.4430.212 Safari/537.36",WebKit,Chrome,90.0.4430.212,Windows,10.0
178,1,null,null,html-keyboard-response,112,158042,0.0-112.0,IwAR2P93ukWaKHwC_Dv2xM2_QyXpS_Zdem4Mu0vLX7sSNZl_z6qElJ0VK5qAo,"
    <img id = 'img_b1' width = 18% height = 32% style = 'position:absolute;top:10%;left:25%'>
    <img id = 'img_b2' width = 18% height = 32% style = 'position:absolute;top:10%;right:25%'>
    <img id = 'img_b3' width = 18% height = 32% style = 'position:absolute;bottom:10%;left:25%'>
    <img id = 'img_b4' width = 18% height = 32% style = 'position:absolute;bottom:10%;right:25%'>
    <div id = 'band_txt'></div>
    <div id = 'cum' style = 'position:absolute;top:5%;right:5%;font-size:calc(18px + 6 * ((100vw - 320px) / 680))'></div>
  ","""","""","""","""","""","""","""","""","""","2021-05-16 20:36:12",27.63.157.77,"Mozilla/5.0 (Windows NT 10.0; Win64; x64) AppleWebKit/537.36 (KHTML, like Gecko) Chrome/90.0.4430.212 Safari/537.36",WebKit,Chrome,90.0.4430.212,Windows,10.0
178,1,null,null,html-keyboard-response,113,159550,0.0-113.0,IwAR2P93ukWaKHwC_Dv2xM2_QyXpS_Zdem4Mu0vLX7sSNZl_z6qElJ0VK5qAo,"<div style=""font-size:60px;"">+</div>","""","""","""","""","""","""","""","""","""","2021-05-16 20:36:12",27.63.157.77,"Mozilla/5.0 (Windows NT 10.0; Win64; x64) AppleWebKit/537.36 (KHTML, like Gecko) Chrome/90.0.4430.212 Safari/537.36",WebKit,Chrome,90.0.4430.212,Windows,10.0
178,1,1126.7550000920892,m,html-keyboard-response,114,160678,0.0-114.0,IwAR2P93ukWaKHwC_Dv2xM2_QyXpS_Zdem4Mu0vLX7sSNZl_z6qElJ0VK5qAo,"
    <img id = 'img_b1' width = 18% height = 32% style = 'position:absolute;top:10%;left:25%'>
    <img id = 'img_b2' width = 18% height = 32% style = 'position:absolute;top:10%;right:25%'>
    <img id = 'img_b3' width = 18% height = 32% style = 'position:absolute;bottom:10%;left:25%'>
    <img id = 'img_b4' width = 18% height = 32% style = 'position:absolute;bottom:10%;right:25%'>
    <div id = 'cum' style = 'position:absolute;top:5%;right:5%;font-size:calc(18px + 6 * ((100vw - 320px) / 680))'></div>
  ","""","""","""","""","""","""","""","""","""","2021-05-16 20:36:12",27.63.157.77,"Mozilla/5.0 (Windows NT 10.0; Win64; x64) AppleWebKit/537.36 (KHTML, like Gecko) Chrome/90.0.4430.212 Safari/537.36",WebKit,Chrome,90.0.4430.212,Windows,10.0
178,1,null,null,html-keyboard-response,115,162184,0.0-115.0,IwAR2P93ukWaKHwC_Dv2xM2_QyXpS_Zdem4Mu0vLX7sSNZl_z6qElJ0VK5qAo,"
    <img id = 'img_b1' width = 18% height = 32% style = 'position:absolute;top:10%;left:25%'>
    <img id = 'img_b2' width = 18% height = 32% style = 'position:absolute;top:10%;right:25%'>
    <img id = 'img_b3' width = 18% height = 32% style = 'position:absolute;bottom:10%;left:25%'>
    <img id = 'img_b4' width = 18% height = 32% style = 'position:absolute;bottom:10%;right:25%'>
    <div id = 'band_txt'></div>
    <div id = 'cum' style = 'position:absolute;top:5%;right:5%;font-size:calc(18px + 6 * ((100vw - 320px) / 680))'></div>
  ","""","""","""","""","""","""","""","""","""","2021-05-16 20:36:12",27.63.157.77,"Mozilla/5.0 (Windows NT 10.0; Win64; x64) AppleWebKit/537.36 (KHTML, like Gecko) Chrome/90.0.4430.212 Safari/537.36",WebKit,Chrome,90.0.4430.212,Windows,10.0
178,1,null,null,html-keyboard-response,116,163194,0.0-116.0,IwAR2P93ukWaKHwC_Dv2xM2_QyXpS_Zdem4Mu0vLX7sSNZl_z6qElJ0VK5qAo,"<div style=""font-size:60px;"">+</div>","""","""","""","""","""","""","""","""","""","2021-05-16 20:36:12",27.63.157.77,"Mozilla/5.0 (Windows NT 10.0; Win64; x64) AppleWebKit/537.36 (KHTML, like Gecko) Chrome/90.0.4430.212 Safari/537.36",WebKit,Chrome,90.0.4430.212,Windows,10.0
178,1,873.7800000235438,m,html-keyboard-response,117,164070,0.0-117.0,IwAR2P93ukWaKHwC_Dv2xM2_QyXpS_Zdem4Mu0vLX7sSNZl_z6qElJ0VK5qAo,"
    <img id = 'img_b1' width = 18% height = 32% style = 'position:absolute;top:10%;left:25%'>
    <img id = 'img_b2' width = 18% height = 32% style = 'position:absolute;top:10%;right:25%'>
    <img id = 'img_b3' width = 18% height = 32% style = 'position:absolute;bottom:10%;left:25%'>
    <img id = 'img_b4' width = 18% height = 32% style = 'position:absolute;bottom:10%;right:25%'>
    <div id = 'cum' style = 'position:absolute;top:5%;right:5%;font-size:calc(18px + 6 * ((100vw - 320px) / 680))'></div>
  ","""","""","""","""","""","""","""","""","""","2021-05-16 20:36:12",27.63.157.77,"Mozilla/5.0 (Windows NT 10.0; Win64; x64) AppleWebKit/537.36 (KHTML, like Gecko) Chrome/90.0.4430.212 Safari/537.36",WebKit,Chrome,90.0.4430.212,Windows,10.0
178,1,null,null,html-keyboard-response,118,165584,0.0-118.0,IwAR2P93ukWaKHwC_Dv2xM2_QyXpS_Zdem4Mu0vLX7sSNZl_z6qElJ0VK5qAo,"
    <img id = 'img_b1' width = 18% height = 32% style = 'position:absolute;top:10%;left:25%'>
    <img id = 'img_b2' width = 18% height = 32% style = 'position:absolute;top:10%;right:25%'>
    <img id = 'img_b3' width = 18% height = 32% style = 'position:absolute;bottom:10%;left:25%'>
    <img id = 'img_b4' width = 18% height = 32% style = 'position:absolute;bottom:10%;right:25%'>
    <div id = 'band_txt'></div>
    <div id = 'cum' style = 'position:absolute;top:5%;right:5%;font-size:calc(18px + 6 * ((100vw - 320px) / 680))'></div>
  ","""","""","""","""","""","""","""","""","""","2021-05-16 20:36:12",27.63.157.77,"Mozilla/5.0 (Windows NT 10.0; Win64; x64) AppleWebKit/537.36 (KHTML, like Gecko) Chrome/90.0.4430.212 Safari/537.36",WebKit,Chrome,90.0.4430.212,Windows,10.0
178,1,null,null,html-keyboard-response,119,167348,0.0-119.0,IwAR2P93ukWaKHwC_Dv2xM2_QyXpS_Zdem4Mu0vLX7sSNZl_z6qElJ0VK5qAo,"<div style=""font-size:60px;"">+</div>","""","""","""","""","""","""","""","""","""","2021-05-16 20:36:12",27.63.157.77,"Mozilla/5.0 (Windows NT 10.0; Win64; x64) AppleWebKit/537.36 (KHTML, like Gecko) Chrome/90.0.4430.212 Safari/537.36",WebKit,Chrome,90.0.4430.212,Windows,10.0
178,1,516.4749999530613,m,html-keyboard-response,120,167866,0.0-120.0,IwAR2P93ukWaKHwC_Dv2xM2_QyXpS_Zdem4Mu0vLX7sSNZl_z6qElJ0VK5qAo,"
    <img id = 'img_b1' width = 18% height = 32% style = 'position:absolute;top:10%;left:25%'>
    <img id = 'img_b2' width = 18% height = 32% style = 'position:absolute;top:10%;right:25%'>
    <img id = 'img_b3' width = 18% height = 32% style = 'position:absolute;bottom:10%;left:25%'>
    <img id = 'img_b4' width = 18% height = 32% style = 'position:absolute;bottom:10%;right:25%'>
    <div id = 'cum' style = 'position:absolute;top:5%;right:5%;font-size:calc(18px + 6 * ((100vw - 320px) / 680))'></div>
  ","""","""","""","""","""","""","""","""","""","2021-05-16 20:36:12",27.63.157.77,"Mozilla/5.0 (Windows NT 10.0; Win64; x64) AppleWebKit/537.36 (KHTML, like Gecko) Chrome/90.0.4430.212 Safari/537.36",WebKit,Chrome,90.0.4430.212,Windows,10.0
178,1,null,null,html-keyboard-response,121,169372,0.0-121.0,IwAR2P93ukWaKHwC_Dv2xM2_QyXpS_Zdem4Mu0vLX7sSNZl_z6qElJ0VK5qAo,"
    <img id = 'img_b1' width = 18% height = 32% style = 'position:absolute;top:10%;left:25%'>
    <img id = 'img_b2' width = 18% height = 32% style = 'position:absolute;top:10%;right:25%'>
    <img id = 'img_b3' width = 18% height = 32% style = 'position:absolute;bottom:10%;left:25%'>
    <img id = 'img_b4' width = 18% height = 32% style = 'position:absolute;bottom:10%;right:25%'>
    <div id = 'band_txt'></div>
    <div id = 'cum' style = 'position:absolute;top:5%;right:5%;font-size:calc(18px + 6 * ((100vw - 320px) / 680))'></div>
  ","""","""","""","""","""","""","""","""","""","2021-05-16 20:36:12",27.63.157.77,"Mozilla/5.0 (Windows NT 10.0; Win64; x64) AppleWebKit/537.36 (KHTML, like Gecko) Chrome/90.0.4430.212 Safari/537.36",WebKit,Chrome,90.0.4430.212,Windows,10.0
178,1,null,null,html-keyboard-response,122,170635,0.0-122.0,IwAR2P93ukWaKHwC_Dv2xM2_QyXpS_Zdem4Mu0vLX7sSNZl_z6qElJ0VK5qAo,"<div style=""font-size:60px;"">+</div>","""","""","""","""","""","""","""","""","""","2021-05-16 20:36:12",27.63.157.77,"Mozilla/5.0 (Windows NT 10.0; Win64; x64) AppleWebKit/537.36 (KHTML, like Gecko) Chrome/90.0.4430.212 Safari/537.36",WebKit,Chrome,90.0.4430.212,Windows,10.0
178,1,477.54500014707446,m,html-keyboard-response,123,171114,0.0-123.0,IwAR2P93ukWaKHwC_Dv2xM2_QyXpS_Zdem4Mu0vLX7sSNZl_z6qElJ0VK5qAo,"
    <img id = 'img_b1' width = 18% height = 32% style = 'position:absolute;top:10%;left:25%'>
    <img id = 'img_b2' width = 18% height = 32% style = 'position:absolute;top:10%;right:25%'>
    <img id = 'img_b3' width = 18% height = 32% style = 'position:absolute;bottom:10%;left:25%'>
    <img id = 'img_b4' width = 18% height = 32% style = 'position:absolute;bottom:10%;right:25%'>
    <div id = 'cum' style = 'position:absolute;top:5%;right:5%;font-size:calc(18px + 6 * ((100vw - 320px) / 680))'></div>
  ","""","""","""","""","""","""","""","""","""","2021-05-16 20:36:12",27.63.157.77,"Mozilla/5.0 (Windows NT 10.0; Win64; x64) AppleWebKit/537.36 (KHTML, like Gecko) Chrome/90.0.4430.212 Safari/537.36",WebKit,Chrome,90.0.4430.212,Windows,10.0
178,1,null,null,html-keyboard-response,124,172623,0.0-124.0,IwAR2P93ukWaKHwC_Dv2xM2_QyXpS_Zdem4Mu0vLX7sSNZl_z6qElJ0VK5qAo,"
    <img id = 'img_b1' width = 18% height = 32% style = 'position:absolute;top:10%;left:25%'>
    <img id = 'img_b2' width = 18% height = 32% style = 'position:absolute;top:10%;right:25%'>
    <img id = 'img_b3' width = 18% height = 32% style = 'position:absolute;bottom:10%;left:25%'>
    <img id = 'img_b4' width = 18% height = 32% style = 'position:absolute;bottom:10%;right:25%'>
    <div id = 'band_txt'></div>
    <div id = 'cum' style = 'position:absolute;top:5%;right:5%;font-size:calc(18px + 6 * ((100vw - 320px) / 680))'></div>
  ","""","""","""","""","""","""","""","""","""","2021-05-16 20:36:12",27.63.157.77,"Mozilla/5.0 (Windows NT 10.0; Win64; x64) AppleWebKit/537.36 (KHTML, like Gecko) Chrome/90.0.4430.212 Safari/537.36",WebKit,Chrome,90.0.4430.212,Windows,10.0
178,1,null,null,html-keyboard-response,125,173635,0.0-125.0,IwAR2P93ukWaKHwC_Dv2xM2_QyXpS_Zdem4Mu0vLX7sSNZl_z6qElJ0VK5qAo,"<div style=""font-size:60px;"">+</div>","""","""","""","""","""","""","""","""","""","2021-05-16 20:36:12",27.63.157.77,"Mozilla/5.0 (Windows NT 10.0; Win64; x64) AppleWebKit/537.36 (KHTML, like Gecko) Chrome/90.0.4430.212 Safari/537.36",WebKit,Chrome,90.0.4430.212,Windows,10.0
178,1,377.0699999295175,m,html-keyboard-response,126,174013,0.0-126.0,IwAR2P93ukWaKHwC_Dv2xM2_QyXpS_Zdem4Mu0vLX7sSNZl_z6qElJ0VK5qAo,"
    <img id = 'img_b1' width = 18% height = 32% style = 'position:absolute;top:10%;left:25%'>
    <img id = 'img_b2' width = 18% height = 32% style = 'position:absolute;top:10%;right:25%'>
    <img id = 'img_b3' width = 18% height = 32% style = 'position:absolute;bottom:10%;left:25%'>
    <img id = 'img_b4' width = 18% height = 32% style = 'position:absolute;bottom:10%;right:25%'>
    <div id = 'cum' style = 'position:absolute;top:5%;right:5%;font-size:calc(18px + 6 * ((100vw - 320px) / 680))'></div>
  ","""","""","""","""","""","""","""","""","""","2021-05-16 20:36:12",27.63.157.77,"Mozilla/5.0 (Windows NT 10.0; Win64; x64) AppleWebKit/537.36 (KHTML, like Gecko) Chrome/90.0.4430.212 Safari/537.36",WebKit,Chrome,90.0.4430.212,Windows,10.0
178,1,null,null,html-keyboard-response,127,175532,0.0-127.0,IwAR2P93ukWaKHwC_Dv2xM2_QyXpS_Zdem4Mu0vLX7sSNZl_z6qElJ0VK5qAo,"
    <img id = 'img_b1' width = 18% height = 32% style = 'position:absolute;top:10%;left:25%'>
    <img id = 'img_b2' width = 18% height = 32% style = 'position:absolute;top:10%;right:25%'>
    <img id = 'img_b3' width = 18% height = 32% style = 'position:absolute;bottom:10%;left:25%'>
    <img id = 'img_b4' width = 18% height = 32% style = 'position:absolute;bottom:10%;right:25%'>
    <div id = 'band_txt'></div>
    <div id = 'cum' style = 'position:absolute;top:5%;right:5%;font-size:calc(18px + 6 * ((100vw - 320px) / 680))'></div>
  ","""","""","""","""","""","""","""","""","""","2021-05-16 20:36:12",27.63.157.77,"Mozilla/5.0 (Windows NT 10.0; Win64; x64) AppleWebKit/537.36 (KHTML, like Gecko) Chrome/90.0.4430.212 Safari/537.36",WebKit,Chrome,90.0.4430.212,Windows,10.0
178,1,null,null,html-keyboard-response,128,177048,0.0-128.0,IwAR2P93ukWaKHwC_Dv2xM2_QyXpS_Zdem4Mu0vLX7sSNZl_z6qElJ0VK5qAo,"<div style=""font-size:60px;"">+</div>","""","""","""","""","""","""","""","""","""","2021-05-16 20:36:12",27.63.157.77,"Mozilla/5.0 (Windows NT 10.0; Win64; x64) AppleWebKit/537.36 (KHTML, like Gecko) Chrome/90.0.4430.212 Safari/537.36",WebKit,Chrome,90.0.4430.212,Windows,10.0
178,1,648.5700001940131,m,html-keyboard-response,129,177699,0.0-129.0,IwAR2P93ukWaKHwC_Dv2xM2_QyXpS_Zdem4Mu0vLX7sSNZl_z6qElJ0VK5qAo,"
    <img id = 'img_b1' width = 18% height = 32% style = 'position:absolute;top:10%;left:25%'>
    <img id = 'img_b2' width = 18% height = 32% style = 'position:absolute;top:10%;right:25%'>
    <img id = 'img_b3' width = 18% height = 32% style = 'position:absolute;bottom:10%;left:25%'>
    <img id = 'img_b4' width = 18% height = 32% style = 'position:absolute;bottom:10%;right:25%'>
    <div id = 'cum' style = 'position:absolute;top:5%;right:5%;font-size:calc(18px + 6 * ((100vw - 320px) / 680))'></div>
  ","""","""","""","""","""","""","""","""","""","2021-05-16 20:36:12",27.63.157.77,"Mozilla/5.0 (Windows NT 10.0; Win64; x64) AppleWebKit/537.36 (KHTML, like Gecko) Chrome/90.0.4430.212 Safari/537.36",WebKit,Chrome,90.0.4430.212,Windows,10.0
178,1,null,null,html-keyboard-response,130,179211,0.0-130.0,IwAR2P93ukWaKHwC_Dv2xM2_QyXpS_Zdem4Mu0vLX7sSNZl_z6qElJ0VK5qAo,"
    <img id = 'img_b1' width = 18% height = 32% style = 'position:absolute;top:10%;left:25%'>
    <img id = 'img_b2' width = 18% height = 32% style = 'position:absolute;top:10%;right:25%'>
    <img id = 'img_b3' width = 18% height = 32% style = 'position:absolute;bottom:10%;left:25%'>
    <img id = 'img_b4' width = 18% height = 32% style = 'position:absolute;bottom:10%;right:25%'>
    <div id = 'band_txt'></div>
    <div id = 'cum' style = 'position:absolute;top:5%;right:5%;font-size:calc(18px + 6 * ((100vw - 320px) / 680))'></div>
  ","""","""","""","""","""","""","""","""","""","2021-05-16 20:36:12",27.63.157.77,"Mozilla/5.0 (Windows NT 10.0; Win64; x64) AppleWebKit/537.36 (KHTML, like Gecko) Chrome/90.0.4430.212 Safari/537.36",WebKit,Chrome,90.0.4430.212,Windows,10.0
178,1,null,null,html-keyboard-response,131,179967,0.0-131.0,IwAR2P93ukWaKHwC_Dv2xM2_QyXpS_Zdem4Mu0vLX7sSNZl_z6qElJ0VK5qAo,"<div style=""font-size:60px;"">+</div>","""","""","""","""","""","""","""","""","""","2021-05-16 20:36:12",27.63.157.77,"Mozilla/5.0 (Windows NT 10.0; Win64; x64) AppleWebKit/537.36 (KHTML, like Gecko) Chrome/90.0.4430.212 Safari/537.36",WebKit,Chrome,90.0.4430.212,Windows,10.0
178,1,1240.6199998222291,m,html-keyboard-response,132,181208,0.0-132.0,IwAR2P93ukWaKHwC_Dv2xM2_QyXpS_Zdem4Mu0vLX7sSNZl_z6qElJ0VK5qAo,"
    <img id = 'img_b1' width = 18% height = 32% style = 'position:absolute;top:10%;left:25%'>
    <img id = 'img_b2' width = 18% height = 32% style = 'position:absolute;top:10%;right:25%'>
    <img id = 'img_b3' width = 18% height = 32% style = 'position:absolute;bottom:10%;left:25%'>
    <img id = 'img_b4' width = 18% height = 32% style = 'position:absolute;bottom:10%;right:25%'>
    <div id = 'cum' style = 'position:absolute;top:5%;right:5%;font-size:calc(18px + 6 * ((100vw - 320px) / 680))'></div>
  ","""","""","""","""","""","""","""","""","""","2021-05-16 20:36:12",27.63.157.77,"Mozilla/5.0 (Windows NT 10.0; Win64; x64) AppleWebKit/537.36 (KHTML, like Gecko) Chrome/90.0.4430.212 Safari/537.36",WebKit,Chrome,90.0.4430.212,Windows,10.0
178,1,null,null,html-keyboard-response,133,182720,0.0-133.0,IwAR2P93ukWaKHwC_Dv2xM2_QyXpS_Zdem4Mu0vLX7sSNZl_z6qElJ0VK5qAo,"
    <img id = 'img_b1' width = 18% height = 32% style = 'position:absolute;top:10%;left:25%'>
    <img id = 'img_b2' width = 18% height = 32% style = 'position:absolute;top:10%;right:25%'>
    <img id = 'img_b3' width = 18% height = 32% style = 'position:absolute;bottom:10%;left:25%'>
    <img id = 'img_b4' width = 18% height = 32% style = 'position:absolute;bottom:10%;right:25%'>
    <div id = 'band_txt'></div>
    <div id = 'cum' style = 'position:absolute;top:5%;right:5%;font-size:calc(18px + 6 * ((100vw - 320px) / 680))'></div>
  ","""","""","""","""","""","""","""","""","""","2021-05-16 20:36:12",27.63.157.77,"Mozilla/5.0 (Windows NT 10.0; Win64; x64) AppleWebKit/537.36 (KHTML, like Gecko) Chrome/90.0.4430.212 Safari/537.36",WebKit,Chrome,90.0.4430.212,Windows,10.0
178,1,null,null,html-keyboard-response,134,183988,0.0-134.0,IwAR2P93ukWaKHwC_Dv2xM2_QyXpS_Zdem4Mu0vLX7sSNZl_z6qElJ0VK5qAo,"<div style=""font-size:60px;"">+</div>","""","""","""","""","""","""","""","""","""","2021-05-16 20:36:12",27.63.157.77,"Mozilla/5.0 (Windows NT 10.0; Win64; x64) AppleWebKit/537.36 (KHTML, like Gecko) Chrome/90.0.4430.212 Safari/537.36",WebKit,Chrome,90.0.4430.212,Windows,10.0
178,1,630.5849999189377,m,html-keyboard-response,135,184621,0.0-135.0,IwAR2P93ukWaKHwC_Dv2xM2_QyXpS_Zdem4Mu0vLX7sSNZl_z6qElJ0VK5qAo,"
    <img id = 'img_b1' width = 18% height = 32% style = 'position:absolute;top:10%;left:25%'>
    <img id = 'img_b2' width = 18% height = 32% style = 'position:absolute;top:10%;right:25%'>
    <img id = 'img_b3' width = 18% height = 32% style = 'position:absolute;bottom:10%;left:25%'>
    <img id = 'img_b4' width = 18% height = 32% style = 'position:absolute;bottom:10%;right:25%'>
    <div id = 'cum' style = 'position:absolute;top:5%;right:5%;font-size:calc(18px + 6 * ((100vw - 320px) / 680))'></div>
  ","""","""","""","""","""","""","""","""","""","2021-05-16 20:36:12",27.63.157.77,"Mozilla/5.0 (Windows NT 10.0; Win64; x64) AppleWebKit/537.36 (KHTML, like Gecko) Chrome/90.0.4430.212 Safari/537.36",WebKit,Chrome,90.0.4430.212,Windows,10.0
178,1,null,null,html-keyboard-response,136,186126,0.0-136.0,IwAR2P93ukWaKHwC_Dv2xM2_QyXpS_Zdem4Mu0vLX7sSNZl_z6qElJ0VK5qAo,"
    <img id = 'img_b1' width = 18% height = 32% style = 'position:absolute;top:10%;left:25%'>
    <img id = 'img_b2' width = 18% height = 32% style = 'position:absolute;top:10%;right:25%'>
    <img id = 'img_b3' width = 18% height = 32% style = 'position:absolute;bottom:10%;left:25%'>
    <img id = 'img_b4' width = 18% height = 32% style = 'position:absolute;bottom:10%;right:25%'>
    <div id = 'band_txt'></div>
