run_id,condition,rt,response,trial_type,trial_index,time_elapsed,internal_node_id,fbclid,stimulus,trend,stable,num,resp_map,success,timeout,failed_images,failed_audio,failed_video,recorded_at,ip,user_agent,device,browser,browser_version,platform,platform_version
41,1,80048.60499999995,"{""age"":""22"",""sex"":""Male"",""hand"":""Right""}",survey-text,0,80073,0.0-0.0,IwAR1lKwcBviEdRPpZsd6dBePtLC-fpl5u4k9t8ynITfOeee1nCNrdZxx468o,"""","""","""","""","""","""","""","""","""","""","2021-05-05 14:00:29",49.36.243.234,"Mozilla/5.0 (X11; Linux x86_64) AppleWebKit/537.36 (KHTML, like Gecko) Chrome/90.0.4430.93 Safari/537.36",WebKit,Chrome,90.0.4430.93,Linux,
41,1,6155.544999997801,enter,html-keyboard-response,1,86248,0.0-1.0,IwAR1lKwcBviEdRPpZsd6dBePtLC-fpl5u4k9t8ynITfOeee1nCNrdZxx468o,"Hi! Thanks for volunteering for this study. It is part of the project component for the course, CS786A - Computational Cognitive Science, at IIT Kanpur.<br> You will now play a decision-making game lasting for 15-20 minutes. In case of any queries, please write to prathams@iitk.ac.in or call at 9760066853.<br><br>Press any key to continue!",1,1,0,"[0,3,1,2]","""","""","""","""","""","2021-05-05 14:00:29",49.36.243.234,"Mozilla/5.0 (X11; Linux x86_64) AppleWebKit/537.36 (KHTML, like Gecko) Chrome/90.0.4430.93 Safari/537.36",WebKit,Chrome,90.0.4430.93,Linux,
41,1,68071.41000000047,f,html-keyboard-response,2,154322,0.0-2.0,IwAR1lKwcBviEdRPpZsd6dBePtLC-fpl5u4k9t8ynITfOeee1nCNrdZxx468o,"Imagine you are in a casino, and you go to a room with four slot machines. On pulling a machine, it yeilds a reward. At any point, some machines may be better than the others, but the amount they give varies. Your aim is to maximize your cumulative reward by the end of this experiment. <br>Machines are pulled by pressing 'Q', 'P', 'M' or 'Z' on the keyboard. These keys are arranged in the same way on the keyboard as the slot machines are on the screen.<br>Press any button to see an illustration of the trial screen and the keyboard mapping!","""","""","""","""","""","""","""","""","""","2021-05-05 14:00:29",49.36.243.234,"Mozilla/5.0 (X11; Linux x86_64) AppleWebKit/537.36 (KHTML, like Gecko) Chrome/90.0.4430.93 Safari/537.36",WebKit,Chrome,90.0.4430.93,Linux,
41,1,"""","""",preload,3,156040,0.0-3.0,IwAR1lKwcBviEdRPpZsd6dBePtLC-fpl5u4k9t8ynITfOeee1nCNrdZxx468o,"""","""","""","""","""",true,false,[],[],[],"2021-05-05 14:00:29",49.36.243.234,"Mozilla/5.0 (X11; Linux x86_64) AppleWebKit/537.36 (KHTML, like Gecko) Chrome/90.0.4430.93 Safari/537.36",WebKit,Chrome,90.0.4430.93,Linux,
41,1,3007.9450000012002,q,html-keyboard-response,4,159051,0.0-4.0,IwAR1lKwcBviEdRPpZsd6dBePtLC-fpl5u4k9t8ynITfOeee1nCNrdZxx468o,"
    <img src = 'img/b1.png' width = 18% height = 32% style = 'position:absolute;top:10%;left:25%'>
    <img src = 'img/b2.png' width = 18% height = 32% style = 'position:absolute;top:10%;right:25%'>
    <img src = 'img/b3.png' width = 18% height = 32% style = 'position:absolute;bottom:10%;left:25%'>
    <img src = 'img/b4.png' width = 18% height = 32% style = 'position:absolute;bottom:10%;right:25%'>
    <div id = 'cum' style = 'position:absolute;top:5%;right:5%;font-size:calc(18px + 6 * ((100vw - 320px) / 680))'>Total</div>
    <div style = 'position:absolute;top:20%;left:30%;color:black;font-size:calc(18px + 6 * ((100vw - 320px) / 680))'>Q</div>
    <div style = 'position:absolute;top:20%;right:35%;color:black;font-size:calc(18px + 6 * ((100vw - 320px) / 680))'>P</div>
    <div style = 'position:absolute;bottom:26%;right:35%;color:black;font-size:calc(18px + 6 * ((100vw - 320px) / 680))'>M</div>
    <div style = 'position:absolute;bottom:26%;left:30%;color:black;font-size:calc(18px + 6 * ((100vw - 320px) / 680))'>Z</div>
    <div style = 'position:absolute;bottom:5%;left:30%'>Press any button to proceed to the experiment!</div>
  ","""","""","""","""","""","""","""","""","""","2021-05-05 14:00:29",49.36.243.234,"Mozilla/5.0 (X11; Linux x86_64) AppleWebKit/537.36 (KHTML, like Gecko) Chrome/90.0.4430.93 Safari/537.36",WebKit,Chrome,90.0.4430.93,Linux,
41,1,null,null,html-keyboard-response,5,160306,0.0-5.0,IwAR1lKwcBviEdRPpZsd6dBePtLC-fpl5u4k9t8ynITfOeee1nCNrdZxx468o,"<div style=""font-size:60px;"">+</div>","""","""","""","""","""","""","""","""","""","2021-05-05 14:00:29",49.36.243.234,"Mozilla/5.0 (X11; Linux x86_64) AppleWebKit/537.36 (KHTML, like Gecko) Chrome/90.0.4430.93 Safari/537.36",WebKit,Chrome,90.0.4430.93,Linux,
41,1,5551.195000000007,p,html-keyboard-response,6,165868,0.0-6.0,IwAR1lKwcBviEdRPpZsd6dBePtLC-fpl5u4k9t8ynITfOeee1nCNrdZxx468o,"
    <img id = 'img_b1' width = 18% height = 32% style = 'position:absolute;top:10%;left:25%'>
    <img id = 'img_b2' width = 18% height = 32% style = 'position:absolute;top:10%;right:25%'>
    <img id = 'img_b3' width = 18% height = 32% style = 'position:absolute;bottom:10%;left:25%'>
    <img id = 'img_b4' width = 18% height = 32% style = 'position:absolute;bottom:10%;right:25%'>
    <div id = 'cum' style = 'position:absolute;top:5%;right:5%;font-size:calc(18px + 6 * ((100vw - 320px) / 680))'></div>
  ","""","""","""","""","""","""","""","""","""","2021-05-05 14:00:29",49.36.243.234,"Mozilla/5.0 (X11; Linux x86_64) AppleWebKit/537.36 (KHTML, like Gecko) Chrome/90.0.4430.93 Safari/537.36",WebKit,Chrome,90.0.4430.93,Linux,
41,1,null,null,html-keyboard-response,7,167375,0.0-7.0,IwAR1lKwcBviEdRPpZsd6dBePtLC-fpl5u4k9t8ynITfOeee1nCNrdZxx468o,"
    <img id = 'img_b1' width = 18% height = 32% style = 'position:absolute;top:10%;left:25%'>
    <img id = 'img_b2' width = 18% height = 32% style = 'position:absolute;top:10%;right:25%'>
    <img id = 'img_b3' width = 18% height = 32% style = 'position:absolute;bottom:10%;left:25%'>
    <img id = 'img_b4' width = 18% height = 32% style = 'position:absolute;bottom:10%;right:25%'>
    <div id = 'band_txt'></div>
    <div id = 'cum' style = 'position:absolute;top:5%;right:5%;font-size:calc(18px + 6 * ((100vw - 320px) / 680))'></div>
  ","""","""","""","""","""","""","""","""","""","2021-05-05 14:00:29",49.36.243.234,"Mozilla/5.0 (X11; Linux x86_64) AppleWebKit/537.36 (KHTML, like Gecko) Chrome/90.0.4430.93 Safari/537.36",WebKit,Chrome,90.0.4430.93,Linux,
41,1,null,null,html-keyboard-response,8,168377,0.0-8.0,IwAR1lKwcBviEdRPpZsd6dBePtLC-fpl5u4k9t8ynITfOeee1nCNrdZxx468o,"<div style=""font-size:60px;"">+</div>","""","""","""","""","""","""","""","""","""","2021-05-05 14:00:29",49.36.243.234,"Mozilla/5.0 (X11; Linux x86_64) AppleWebKit/537.36 (KHTML, like Gecko) Chrome/90.0.4430.93 Safari/537.36",WebKit,Chrome,90.0.4430.93,Linux,
41,1,903.5750000002736,m,html-keyboard-response,9,169284,0.0-9.0,IwAR1lKwcBviEdRPpZsd6dBePtLC-fpl5u4k9t8ynITfOeee1nCNrdZxx468o,"
    <img id = 'img_b1' width = 18% height = 32% style = 'position:absolute;top:10%;left:25%'>
    <img id = 'img_b2' width = 18% height = 32% style = 'position:absolute;top:10%;right:25%'>
    <img id = 'img_b3' width = 18% height = 32% style = 'position:absolute;bottom:10%;left:25%'>
    <img id = 'img_b4' width = 18% height = 32% style = 'position:absolute;bottom:10%;right:25%'>
    <div id = 'cum' style = 'position:absolute;top:5%;right:5%;font-size:calc(18px + 6 * ((100vw - 320px) / 680))'></div>
  ","""","""","""","""","""","""","""","""","""","2021-05-05 14:00:29",49.36.243.234,"Mozilla/5.0 (X11; Linux x86_64) AppleWebKit/537.36 (KHTML, like Gecko) Chrome/90.0.4430.93 Safari/537.36",WebKit,Chrome,90.0.4430.93,Linux,
41,1,null,null,html-keyboard-response,10,170786,0.0-10.0,IwAR1lKwcBviEdRPpZsd6dBePtLC-fpl5u4k9t8ynITfOeee1nCNrdZxx468o,"
    <img id = 'img_b1' width = 18% height = 32% style = 'position:absolute;top:10%;left:25%'>
    <img id = 'img_b2' width = 18% height = 32% style = 'position:absolute;top:10%;right:25%'>
    <img id = 'img_b3' width = 18% height = 32% style = 'position:absolute;bottom:10%;left:25%'>
    <img id = 'img_b4' width = 18% height = 32% style = 'position:absolute;bottom:10%;right:25%'>
    <div id = 'band_txt'></div>
    <div id = 'cum' style = 'position:absolute;top:5%;right:5%;font-size:calc(18px + 6 * ((100vw - 320px) / 680))'></div>
  ","""","""","""","""","""","""","""","""","""","2021-05-05 14:00:29",49.36.243.234,"Mozilla/5.0 (X11; Linux x86_64) AppleWebKit/537.36 (KHTML, like Gecko) Chrome/90.0.4430.93 Safari/537.36",WebKit,Chrome,90.0.4430.93,Linux,
41,1,null,null,html-keyboard-response,11,171789,0.0-11.0,IwAR1lKwcBviEdRPpZsd6dBePtLC-fpl5u4k9t8ynITfOeee1nCNrdZxx468o,"<div style=""font-size:60px;"">+</div>","""","""","""","""","""","""","""","""","""","2021-05-05 14:00:29",49.36.243.234,"Mozilla/5.0 (X11; Linux x86_64) AppleWebKit/537.36 (KHTML, like Gecko) Chrome/90.0.4430.93 Safari/537.36",WebKit,Chrome,90.0.4430.93,Linux,
41,1,959.9249999992026,z,html-keyboard-response,12,172755,0.0-12.0,IwAR1lKwcBviEdRPpZsd6dBePtLC-fpl5u4k9t8ynITfOeee1nCNrdZxx468o,"
    <img id = 'img_b1' width = 18% height = 32% style = 'position:absolute;top:10%;left:25%'>
    <img id = 'img_b2' width = 18% height = 32% style = 'position:absolute;top:10%;right:25%'>
    <img id = 'img_b3' width = 18% height = 32% style = 'position:absolute;bottom:10%;left:25%'>
    <img id = 'img_b4' width = 18% height = 32% style = 'position:absolute;bottom:10%;right:25%'>
    <div id = 'cum' style = 'position:absolute;top:5%;right:5%;font-size:calc(18px + 6 * ((100vw - 320px) / 680))'></div>
  ","""","""","""","""","""","""","""","""","""","2021-05-05 14:00:29",49.36.243.234,"Mozilla/5.0 (X11; Linux x86_64) AppleWebKit/537.36 (KHTML, like Gecko) Chrome/90.0.4430.93 Safari/537.36",WebKit,Chrome,90.0.4430.93,Linux,
41,1,null,null,html-keyboard-response,13,174264,0.0-13.0,IwAR1lKwcBviEdRPpZsd6dBePtLC-fpl5u4k9t8ynITfOeee1nCNrdZxx468o,"
    <img id = 'img_b1' width = 18% height = 32% style = 'position:absolute;top:10%;left:25%'>
    <img id = 'img_b2' width = 18% height = 32% style = 'position:absolute;top:10%;right:25%'>
    <img id = 'img_b3' width = 18% height = 32% style = 'position:absolute;bottom:10%;left:25%'>
    <img id = 'img_b4' width = 18% height = 32% style = 'position:absolute;bottom:10%;right:25%'>
    <div id = 'band_txt'></div>
    <div id = 'cum' style = 'position:absolute;top:5%;right:5%;font-size:calc(18px + 6 * ((100vw - 320px) / 680))'></div>
  ","""","""","""","""","""","""","""","""","""","2021-05-05 14:00:29",49.36.243.234,"Mozilla/5.0 (X11; Linux x86_64) AppleWebKit/537.36 (KHTML, like Gecko) Chrome/90.0.4430.93 Safari/537.36",WebKit,Chrome,90.0.4430.93,Linux,
41,1,null,null,html-keyboard-response,14,176017,0.0-14.0,IwAR1lKwcBviEdRPpZsd6dBePtLC-fpl5u4k9t8ynITfOeee1nCNrdZxx468o,"<div style=""font-size:60px;"">+</div>","""","""","""","""","""","""","""","""","""","2021-05-05 14:00:29",49.36.243.234,"Mozilla/5.0 (X11; Linux x86_64) AppleWebKit/537.36 (KHTML, like Gecko) Chrome/90.0.4430.93 Safari/537.36",WebKit,Chrome,90.0.4430.93,Linux,
41,1,1037.5850000018545,z,html-keyboard-response,15,177057,0.0-15.0,IwAR1lKwcBviEdRPpZsd6dBePtLC-fpl5u4k9t8ynITfOeee1nCNrdZxx468o,"
    <img id = 'img_b1' width = 18% height = 32% style = 'position:absolute;top:10%;left:25%'>
    <img id = 'img_b2' width = 18% height = 32% style = 'position:absolute;top:10%;right:25%'>
    <img id = 'img_b3' width = 18% height = 32% style = 'position:absolute;bottom:10%;left:25%'>
    <img id = 'img_b4' width = 18% height = 32% style = 'position:absolute;bottom:10%;right:25%'>
    <div id = 'cum' style = 'position:absolute;top:5%;right:5%;font-size:calc(18px + 6 * ((100vw - 320px) / 680))'></div>
  ","""","""","""","""","""","""","""","""","""","2021-05-05 14:00:29",49.36.243.234,"Mozilla/5.0 (X11; Linux x86_64) AppleWebKit/537.36 (KHTML, like Gecko) Chrome/90.0.4430.93 Safari/537.36",WebKit,Chrome,90.0.4430.93,Linux,
41,1,null,null,html-keyboard-response,16,178560,0.0-16.0,IwAR1lKwcBviEdRPpZsd6dBePtLC-fpl5u4k9t8ynITfOeee1nCNrdZxx468o,"
    <img id = 'img_b1' width = 18% height = 32% style = 'position:absolute;top:10%;left:25%'>
    <img id = 'img_b2' width = 18% height = 32% style = 'position:absolute;top:10%;right:25%'>
    <img id = 'img_b3' width = 18% height = 32% style = 'position:absolute;bottom:10%;left:25%'>
    <img id = 'img_b4' width = 18% height = 32% style = 'position:absolute;bottom:10%;right:25%'>
    <div id = 'band_txt'></div>
    <div id = 'cum' style = 'position:absolute;top:5%;right:5%;font-size:calc(18px + 6 * ((100vw - 320px) / 680))'></div>
  ","""","""","""","""","""","""","""","""","""","2021-05-05 14:00:29",49.36.243.234,"Mozilla/5.0 (X11; Linux x86_64) AppleWebKit/537.36 (KHTML, like Gecko) Chrome/90.0.4430.93 Safari/537.36",WebKit,Chrome,90.0.4430.93,Linux,
41,1,null,null,html-keyboard-response,17,179564,0.0-17.0,IwAR1lKwcBviEdRPpZsd6dBePtLC-fpl5u4k9t8ynITfOeee1nCNrdZxx468o,"<div style=""font-size:60px;"">+</div>","""","""","""","""","""","""","""","""","""","2021-05-05 14:00:29",49.36.243.234,"Mozilla/5.0 (X11; Linux x86_64) AppleWebKit/537.36 (KHTML, like Gecko) Chrome/90.0.4430.93 Safari/537.36",WebKit,Chrome,90.0.4430.93,Linux,
41,1,746.9399999972666,z,html-keyboard-response,18,180314,0.0-18.0,IwAR1lKwcBviEdRPpZsd6dBePtLC-fpl5u4k9t8ynITfOeee1nCNrdZxx468o,"
    <img id = 'img_b1' width = 18% height = 32% style = 'position:absolute;top:10%;left:25%'>
    <img id = 'img_b2' width = 18% height = 32% style = 'position:absolute;top:10%;right:25%'>
    <img id = 'img_b3' width = 18% height = 32% style = 'position:absolute;bottom:10%;left:25%'>
    <img id = 'img_b4' width = 18% height = 32% style = 'position:absolute;bottom:10%;right:25%'>
    <div id = 'cum' style = 'position:absolute;top:5%;right:5%;font-size:calc(18px + 6 * ((100vw - 320px) / 680))'></div>
  ","""","""","""","""","""","""","""","""","""","2021-05-05 14:00:29",49.36.243.234,"Mozilla/5.0 (X11; Linux x86_64) AppleWebKit/537.36 (KHTML, like Gecko) Chrome/90.0.4430.93 Safari/537.36",WebKit,Chrome,90.0.4430.93,Linux,
41,1,null,null,html-keyboard-response,19,181817,0.0-19.0,IwAR1lKwcBviEdRPpZsd6dBePtLC-fpl5u4k9t8ynITfOeee1nCNrdZxx468o,"
    <img id = 'img_b1' width = 18% height = 32% style = 'position:absolute;top:10%;left:25%'>
    <img id = 'img_b2' width = 18% height = 32% style = 'position:absolute;top:10%;right:25%'>
    <img id = 'img_b3' width = 18% height = 32% style = 'position:absolute;bottom:10%;left:25%'>
    <img id = 'img_b4' width = 18% height = 32% style = 'position:absolute;bottom:10%;right:25%'>
    <div id = 'band_txt'></div>
    <div id = 'cum' style = 'position:absolute;top:5%;right:5%;font-size:calc(18px + 6 * ((100vw - 320px) / 680))'></div>
  ","""","""","""","""","""","""","""","""","""","2021-05-05 14:00:29",49.36.243.234,"Mozilla/5.0 (X11; Linux x86_64) AppleWebKit/537.36 (KHTML, like Gecko) Chrome/90.0.4430.93 Safari/537.36",WebKit,Chrome,90.0.4430.93,Linux,
41,1,null,null,html-keyboard-response,20,183069,0.0-20.0,IwAR1lKwcBviEdRPpZsd6dBePtLC-fpl5u4k9t8ynITfOeee1nCNrdZxx468o,"<div style=""font-size:60px;"">+</div>","""","""","""","""","""","""","""","""","""","2021-05-05 14:00:29",49.36.243.234,"Mozilla/5.0 (X11; Linux x86_64) AppleWebKit/537.36 (KHTML, like Gecko) Chrome/90.0.4430.93 Safari/537.36",WebKit,Chrome,90.0.4430.93,Linux,
41,1,453.71499999964726,z,html-keyboard-response,21,183526,0.0-21.0,IwAR1lKwcBviEdRPpZsd6dBePtLC-fpl5u4k9t8ynITfOeee1nCNrdZxx468o,"
    <img id = 'img_b1' width = 18% height = 32% style = 'position:absolute;top:10%;left:25%'>
    <img id = 'img_b2' width = 18% height = 32% style = 'position:absolute;top:10%;right:25%'>
    <img id = 'img_b3' width = 18% height = 32% style = 'position:absolute;bottom:10%;left:25%'>
    <img id = 'img_b4' width = 18% height = 32% style = 'position:absolute;bottom:10%;right:25%'>
    <div id = 'cum' style = 'position:absolute;top:5%;right:5%;font-size:calc(18px + 6 * ((100vw - 320px) / 680))'></div>
  ","""","""","""","""","""","""","""","""","""","2021-05-05 14:00:29",49.36.243.234,"Mozilla/5.0 (X11; Linux x86_64) AppleWebKit/537.36 (KHTML, like Gecko) Chrome/90.0.4430.93 Safari/537.36",WebKit,Chrome,90.0.4430.93,Linux,
41,1,null,null,html-keyboard-response,22,185029,0.0-22.0,IwAR1lKwcBviEdRPpZsd6dBePtLC-fpl5u4k9t8ynITfOeee1nCNrdZxx468o,"
    <img id = 'img_b1' width = 18% height = 32% style = 'position:absolute;top:10%;left:25%'>
    <img id = 'img_b2' width = 18% height = 32% style = 'position:absolute;top:10%;right:25%'>
    <img id = 'img_b3' width = 18% height = 32% style = 'position:absolute;bottom:10%;left:25%'>
    <img id = 'img_b4' width = 18% height = 32% style = 'position:absolute;bottom:10%;right:25%'>
    <div id = 'band_txt'></div>
    <div id = 'cum' style = 'position:absolute;top:5%;right:5%;font-size:calc(18px + 6 * ((100vw - 320px) / 680))'></div>
  ","""","""","""","""","""","""","""","""","""","2021-05-05 14:00:29",49.36.243.234,"Mozilla/5.0 (X11; Linux x86_64) AppleWebKit/537.36 (KHTML, like Gecko) Chrome/90.0.4430.93 Safari/537.36",WebKit,Chrome,90.0.4430.93,Linux,
41,1,null,null,html-keyboard-response,23,185782,0.0-23.0,IwAR1lKwcBviEdRPpZsd6dBePtLC-fpl5u4k9t8ynITfOeee1nCNrdZxx468o,"<div style=""font-size:60px;"">+</div>","""","""","""","""","""","""","""","""","""","2021-05-05 14:00:29",49.36.243.234,"Mozilla/5.0 (X11; Linux x86_64) AppleWebKit/537.36 (KHTML, like Gecko) Chrome/90.0.4430.93 Safari/537.36",WebKit,Chrome,90.0.4430.93,Linux,
41,1,1180.9500000017579,z,html-keyboard-response,24,186965,0.0-24.0,IwAR1lKwcBviEdRPpZsd6dBePtLC-fpl5u4k9t8ynITfOeee1nCNrdZxx468o,"
    <img id = 'img_b1' width = 18% height = 32% style = 'position:absolute;top:10%;left:25%'>
    <img id = 'img_b2' width = 18% height = 32% style = 'position:absolute;top:10%;right:25%'>
    <img id = 'img_b3' width = 18% height = 32% style = 'position:absolute;bottom:10%;left:25%'>
    <img id = 'img_b4' width = 18% height = 32% style = 'position:absolute;bottom:10%;right:25%'>
    <div id = 'cum' style = 'position:absolute;top:5%;right:5%;font-size:calc(18px + 6 * ((100vw - 320px) / 680))'></div>
  ","""","""","""","""","""","""","""","""","""","2021-05-05 14:00:29",49.36.243.234,"Mozilla/5.0 (X11; Linux x86_64) AppleWebKit/537.36 (KHTML, like Gecko) Chrome/90.0.4430.93 Safari/537.36",WebKit,Chrome,90.0.4430.93,Linux,
41,1,null,null,html-keyboard-response,25,188477,0.0-25.0,IwAR1lKwcBviEdRPpZsd6dBePtLC-fpl5u4k9t8ynITfOeee1nCNrdZxx468o,"
    <img id = 'img_b1' width = 18% height = 32% style = 'position:absolute;top:10%;left:25%'>
    <img id = 'img_b2' width = 18% height = 32% style = 'position:absolute;top:10%;right:25%'>
    <img id = 'img_b3' width = 18% height = 32% style = 'position:absolute;bottom:10%;left:25%'>
    <img id = 'img_b4' width = 18% height = 32% style = 'position:absolute;bottom:10%;right:25%'>
    <div id = 'band_txt'></div>
    <div id = 'cum' style = 'position:absolute;top:5%;right:5%;font-size:calc(18px + 6 * ((100vw - 320px) / 680))'></div>
  ","""","""","""","""","""","""","""","""","""","2021-05-05 14:00:29",49.36.243.234,"Mozilla/5.0 (X11; Linux x86_64) AppleWebKit/537.36 (KHTML, like Gecko) Chrome/90.0.4430.93 Safari/537.36",WebKit,Chrome,90.0.4430.93,Linux,
41,1,null,null,html-keyboard-response,26,189729,0.0-26.0,IwAR1lKwcBviEdRPpZsd6dBePtLC-fpl5u4k9t8ynITfOeee1nCNrdZxx468o,"<div style=""font-size:60px;"">+</div>","""","""","""","""","""","""","""","""","""","2021-05-05 14:00:29",49.36.243.234,"Mozilla/5.0 (X11; Linux x86_64) AppleWebKit/537.36 (KHTML, like Gecko) Chrome/90.0.4430.93 Safari/537.36",WebKit,Chrome,90.0.4430.93,Linux,
41,1,218.0099999968661,z,html-keyboard-response,27,189950,0.0-27.0,IwAR1lKwcBviEdRPpZsd6dBePtLC-fpl5u4k9t8ynITfOeee1nCNrdZxx468o,"
    <img id = 'img_b1' width = 18% height = 32% style = 'position:absolute;top:10%;left:25%'>
    <img id = 'img_b2' width = 18% height = 32% style = 'position:absolute;top:10%;right:25%'>
    <img id = 'img_b3' width = 18% height = 32% style = 'position:absolute;bottom:10%;left:25%'>
    <img id = 'img_b4' width = 18% height = 32% style = 'position:absolute;bottom:10%;right:25%'>
    <div id = 'cum' style = 'position:absolute;top:5%;right:5%;font-size:calc(18px + 6 * ((100vw - 320px) / 680))'></div>
  ","""","""","""","""","""","""","""","""","""","2021-05-05 14:00:29",49.36.243.234,"Mozilla/5.0 (X11; Linux x86_64) AppleWebKit/537.36 (KHTML, like Gecko) Chrome/90.0.4430.93 Safari/537.36",WebKit,Chrome,90.0.4430.93,Linux,
41,1,null,null,html-keyboard-response,28,191454,0.0-28.0,IwAR1lKwcBviEdRPpZsd6dBePtLC-fpl5u4k9t8ynITfOeee1nCNrdZxx468o,"
    <img id = 'img_b1' width = 18% height = 32% style = 'position:absolute;top:10%;left:25%'>
    <img id = 'img_b2' width = 18% height = 32% style = 'position:absolute;top:10%;right:25%'>
    <img id = 'img_b3' width = 18% height = 32% style = 'position:absolute;bottom:10%;left:25%'>
    <img id = 'img_b4' width = 18% height = 32% style = 'position:absolute;bottom:10%;right:25%'>
    <div id = 'band_txt'></div>
    <div id = 'cum' style = 'position:absolute;top:5%;right:5%;font-size:calc(18px + 6 * ((100vw - 320px) / 680))'></div>
  ","""","""","""","""","""","""","""","""","""","2021-05-05 14:00:29",49.36.243.234,"Mozilla/5.0 (X11; Linux x86_64) AppleWebKit/537.36 (KHTML, like Gecko) Chrome/90.0.4430.93 Safari/537.36",WebKit,Chrome,90.0.4430.93,Linux,
41,1,null,null,html-keyboard-response,29,192957,0.0-29.0,IwAR1lKwcBviEdRPpZsd6dBePtLC-fpl5u4k9t8ynITfOeee1nCNrdZxx468o,"<div style=""font-size:60px;"">+</div>","""","""","""","""","""","""","""","""","""","2021-05-05 14:00:29",49.36.243.234,"Mozilla/5.0 (X11; Linux x86_64) AppleWebKit/537.36 (KHTML, like Gecko) Chrome/90.0.4430.93 Safari/537.36",WebKit,Chrome,90.0.4430.93,Linux,
41,1,585.6849999981932,m,html-keyboard-response,30,193545,0.0-30.0,IwAR1lKwcBviEdRPpZsd6dBePtLC-fpl5u4k9t8ynITfOeee1nCNrdZxx468o,"
    <img id = 'img_b1' width = 18% height = 32% style = 'position:absolute;top:10%;left:25%'>
    <img id = 'img_b2' width = 18% height = 32% style = 'position:absolute;top:10%;right:25%'>
    <img id = 'img_b3' width = 18% height = 32% style = 'position:absolute;bottom:10%;left:25%'>
    <img id = 'img_b4' width = 18% height = 32% style = 'position:absolute;bottom:10%;right:25%'>
    <div id = 'cum' style = 'position:absolute;top:5%;right:5%;font-size:calc(18px + 6 * ((100vw - 320px) / 680))'></div>
  ","""","""","""","""","""","""","""","""","""","2021-05-05 14:00:29",49.36.243.234,"Mozilla/5.0 (X11; Linux x86_64) AppleWebKit/537.36 (KHTML, like Gecko) Chrome/90.0.4430.93 Safari/537.36",WebKit,Chrome,90.0.4430.93,Linux,
41,1,null,null,html-keyboard-response,31,195052,0.0-31.0,IwAR1lKwcBviEdRPpZsd6dBePtLC-fpl5u4k9t8ynITfOeee1nCNrdZxx468o,"
    <img id = 'img_b1' width = 18% height = 32% style = 'position:absolute;top:10%;left:25%'>
    <img id = 'img_b2' width = 18% height = 32% style = 'position:absolute;top:10%;right:25%'>
    <img id = 'img_b3' width = 18% height = 32% style = 'position:absolute;bottom:10%;left:25%'>
    <img id = 'img_b4' width = 18% height = 32% style = 'position:absolute;bottom:10%;right:25%'>
    <div id = 'band_txt'></div>
    <div id = 'cum' style = 'position:absolute;top:5%;right:5%;font-size:calc(18px + 6 * ((100vw - 320px) / 680))'></div>
  ","""","""","""","""","""","""","""","""","""","2021-05-05 14:00:29",49.36.243.234,"Mozilla/5.0 (X11; Linux x86_64) AppleWebKit/537.36 (KHTML, like Gecko) Chrome/90.0.4430.93 Safari/537.36",WebKit,Chrome,90.0.4430.93,Linux,
41,1,null,null,html-keyboard-response,32,196054,0.0-32.0,IwAR1lKwcBviEdRPpZsd6dBePtLC-fpl5u4k9t8ynITfOeee1nCNrdZxx468o,"<div style=""font-size:60px;"">+</div>","""","""","""","""","""","""","""","""","""","2021-05-05 14:00:29",49.36.243.234,"Mozilla/5.0 (X11; Linux x86_64) AppleWebKit/537.36 (KHTML, like Gecko) Chrome/90.0.4430.93 Safari/537.36",WebKit,Chrome,90.0.4430.93,Linux,
41,1,335.6499999972584,z,html-keyboard-response,33,196392,0.0-33.0,IwAR1lKwcBviEdRPpZsd6dBePtLC-fpl5u4k9t8ynITfOeee1nCNrdZxx468o,"
    <img id = 'img_b1' width = 18% height = 32% style = 'position:absolute;top:10%;left:25%'>
    <img id = 'img_b2' width = 18% height = 32% style = 'position:absolute;top:10%;right:25%'>
    <img id = 'img_b3' width = 18% height = 32% style = 'position:absolute;bottom:10%;left:25%'>
    <img id = 'img_b4' width = 18% height = 32% style = 'position:absolute;bottom:10%;right:25%'>
    <div id = 'cum' style = 'position:absolute;top:5%;right:5%;font-size:calc(18px + 6 * ((100vw - 320px) / 680))'></div>
  ","""","""","""","""","""","""","""","""","""","2021-05-05 14:00:29",49.36.243.234,"Mozilla/5.0 (X11; Linux x86_64) AppleWebKit/537.36 (KHTML, like Gecko) Chrome/90.0.4430.93 Safari/537.36",WebKit,Chrome,90.0.4430.93,Linux,
41,1,null,null,html-keyboard-response,34,197894,0.0-34.0,IwAR1lKwcBviEdRPpZsd6dBePtLC-fpl5u4k9t8ynITfOeee1nCNrdZxx468o,"
    <img id = 'img_b1' width = 18% height = 32% style = 'position:absolute;top:10%;left:25%'>
    <img id = 'img_b2' width = 18% height = 32% style = 'position:absolute;top:10%;right:25%'>
    <img id = 'img_b3' width = 18% height = 32% style = 'position:absolute;bottom:10%;left:25%'>
    <img id = 'img_b4' width = 18% height = 32% style = 'position:absolute;bottom:10%;right:25%'>
    <div id = 'band_txt'></div>
    <div id = 'cum' style = 'position:absolute;top:5%;right:5%;font-size:calc(18px + 6 * ((100vw - 320px) / 680))'></div>
  ","""","""","""","""","""","""","""","""","""","2021-05-05 14:00:29",49.36.243.234,"Mozilla/5.0 (X11; Linux x86_64) AppleWebKit/537.36 (KHTML, like Gecko) Chrome/90.0.4430.93 Safari/537.36",WebKit,Chrome,90.0.4430.93,Linux,
41,1,null,null,html-keyboard-response,35,199647,0.0-35.0,IwAR1lKwcBviEdRPpZsd6dBePtLC-fpl5u4k9t8ynITfOeee1nCNrdZxx468o,"<div style=""font-size:60px;"">+</div>","""","""","""","""","""","""","""","""","""","2021-05-05 14:00:29",49.36.243.234,"Mozilla/5.0 (X11; Linux x86_64) AppleWebKit/537.36 (KHTML, like Gecko) Chrome/90.0.4430.93 Safari/537.36",WebKit,Chrome,90.0.4430.93,Linux,
41,1,275.7549999987532,z,html-keyboard-response,36,199934,0.0-36.0,IwAR1lKwcBviEdRPpZsd6dBePtLC-fpl5u4k9t8ynITfOeee1nCNrdZxx468o,"
    <img id = 'img_b1' width = 18% height = 32% style = 'position:absolute;top:10%;left:25%'>
    <img id = 'img_b2' width = 18% height = 32% style = 'position:absolute;top:10%;right:25%'>
    <img id = 'img_b3' width = 18% height = 32% style = 'position:absolute;bottom:10%;left:25%'>
    <img id = 'img_b4' width = 18% height = 32% style = 'position:absolute;bottom:10%;right:25%'>
    <div id = 'cum' style = 'position:absolute;top:5%;right:5%;font-size:calc(18px + 6 * ((100vw - 320px) / 680))'></div>
  ","""","""","""","""","""","""","""","""","""","2021-05-05 14:00:29",49.36.243.234,"Mozilla/5.0 (X11; Linux x86_64) AppleWebKit/537.36 (KHTML, like Gecko) Chrome/90.0.4430.93 Safari/537.36",WebKit,Chrome,90.0.4430.93,Linux,
41,1,null,null,html-keyboard-response,37,201438,0.0-37.0,IwAR1lKwcBviEdRPpZsd6dBePtLC-fpl5u4k9t8ynITfOeee1nCNrdZxx468o,"
    <img id = 'img_b1' width = 18% height = 32% style = 'position:absolute;top:10%;left:25%'>
    <img id = 'img_b2' width = 18% height = 32% style = 'position:absolute;top:10%;right:25%'>
    <img id = 'img_b3' width = 18% height = 32% style = 'position:absolute;bottom:10%;left:25%'>
    <img id = 'img_b4' width = 18% height = 32% style = 'position:absolute;bottom:10%;right:25%'>
    <div id = 'band_txt'></div>
    <div id = 'cum' style = 'position:absolute;top:5%;right:5%;font-size:calc(18px + 6 * ((100vw - 320px) / 680))'></div>
  ","""","""","""","""","""","""","""","""","""","2021-05-05 14:00:29",49.36.243.234,"Mozilla/5.0 (X11; Linux x86_64) AppleWebKit/537.36 (KHTML, like Gecko) Chrome/90.0.4430.93 Safari/537.36",WebKit,Chrome,90.0.4430.93,Linux,
41,1,null,null,html-keyboard-response,38,202441,0.0-38.0,IwAR1lKwcBviEdRPpZsd6dBePtLC-fpl5u4k9t8ynITfOeee1nCNrdZxx468o,"<div style=""font-size:60px;"">+</div>","""","""","""","""","""","""","""","""","""","2021-05-05 14:00:29",49.36.243.234,"Mozilla/5.0 (X11; Linux x86_64) AppleWebKit/537.36 (KHTML, like Gecko) Chrome/90.0.4430.93 Safari/537.36",WebKit,Chrome,90.0.4430.93,Linux,
41,1,333.0999999998312,z,html-keyboard-response,39,202777,0.0-39.0,IwAR1lKwcBviEdRPpZsd6dBePtLC-fpl5u4k9t8ynITfOeee1nCNrdZxx468o,"
    <img id = 'img_b1' width = 18% height = 32% style = 'position:absolute;top:10%;left:25%'>
    <img id = 'img_b2' width = 18% height = 32% style = 'position:absolute;top:10%;right:25%'>
    <img id = 'img_b3' width = 18% height = 32% style = 'position:absolute;bottom:10%;left:25%'>
    <img id = 'img_b4' width = 18% height = 32% style = 'position:absolute;bottom:10%;right:25%'>
    <div id = 'cum' style = 'position:absolute;top:5%;right:5%;font-size:calc(18px + 6 * ((100vw - 320px) / 680))'></div>
  ","""","""","""","""","""","""","""","""","""","2021-05-05 14:00:29",49.36.243.234,"Mozilla/5.0 (X11; Linux x86_64) AppleWebKit/537.36 (KHTML, like Gecko) Chrome/90.0.4430.93 Safari/537.36",WebKit,Chrome,90.0.4430.93,Linux,
41,1,null,null,html-keyboard-response,40,204280,0.0-40.0,IwAR1lKwcBviEdRPpZsd6dBePtLC-fpl5u4k9t8ynITfOeee1nCNrdZxx468o,"
    <img id = 'img_b1' width = 18% height = 32% style = 'position:absolute;top:10%;left:25%'>
    <img id = 'img_b2' width = 18% height = 32% style = 'position:absolute;top:10%;right:25%'>
    <img id = 'img_b3' width = 18% height = 32% style = 'position:absolute;bottom:10%;left:25%'>
    <img id = 'img_b4' width = 18% height = 32% style = 'position:absolute;bottom:10%;right:25%'>
    <div id = 'band_txt'></div>
    <div id = 'cum' style = 'position:absolute;top:5%;right:5%;font-size:calc(18px + 6 * ((100vw - 320px) / 680))'></div>
  ","""","""","""","""","""","""","""","""","""","2021-05-05 14:00:29",49.36.243.234,"Mozilla/5.0 (X11; Linux x86_64) AppleWebKit/537.36 (KHTML, like Gecko) Chrome/90.0.4430.93 Safari/537.36",WebKit,Chrome,90.0.4430.93,Linux,
41,1,null,null,html-keyboard-response,41,206033,0.0-41.0,IwAR1lKwcBviEdRPpZsd6dBePtLC-fpl5u4k9t8ynITfOeee1nCNrdZxx468o,"<div style=""font-size:60px;"">+</div>","""","""","""","""","""","""","""","""","""","2021-05-05 14:00:29",49.36.243.234,"Mozilla/5.0 (X11; Linux x86_64) AppleWebKit/537.36 (KHTML, like Gecko) Chrome/90.0.4430.93 Safari/537.36",WebKit,Chrome,90.0.4430.93,Linux,
41,1,260.75499999933527,z,html-keyboard-response,42,206304,0.0-42.0,IwAR1lKwcBviEdRPpZsd6dBePtLC-fpl5u4k9t8ynITfOeee1nCNrdZxx468o,"
    <img id = 'img_b1' width = 18% height = 32% style = 'position:absolute;top:10%;left:25%'>
    <img id = 'img_b2' width = 18% height = 32% style = 'position:absolute;top:10%;right:25%'>
    <img id = 'img_b3' width = 18% height = 32% style = 'position:absolute;bottom:10%;left:25%'>
    <img id = 'img_b4' width = 18% height = 32% style = 'position:absolute;bottom:10%;right:25%'>
    <div id = 'cum' style = 'position:absolute;top:5%;right:5%;font-size:calc(18px + 6 * ((100vw - 320px) / 680))'></div>
  ","""","""","""","""","""","""","""","""","""","2021-05-05 14:00:29",49.36.243.234,"Mozilla/5.0 (X11; Linux x86_64) AppleWebKit/537.36 (KHTML, like Gecko) Chrome/90.0.4430.93 Safari/537.36",WebKit,Chrome,90.0.4430.93,Linux,
41,1,null,null,html-keyboard-response,43,207809,0.0-43.0,IwAR1lKwcBviEdRPpZsd6dBePtLC-fpl5u4k9t8ynITfOeee1nCNrdZxx468o,"
    <img id = 'img_b1' width = 18% height = 32% style = 'position:absolute;top:10%;left:25%'>
    <img id = 'img_b2' width = 18% height = 32% style = 'position:absolute;top:10%;right:25%'>
    <img id = 'img_b3' width = 18% height = 32% style = 'position:absolute;bottom:10%;left:25%'>
    <img id = 'img_b4' width = 18% height = 32% style = 'position:absolute;bottom:10%;right:25%'>
    <div id = 'band_txt'></div>
    <div id = 'cum' style = 'position:absolute;top:5%;right:5%;font-size:calc(18px + 6 * ((100vw - 320px) / 680))'></div>
  ","""","""","""","""","""","""","""","""","""","2021-05-05 14:00:29",49.36.243.234,"Mozilla/5.0 (X11; Linux x86_64) AppleWebKit/537.36 (KHTML, like Gecko) Chrome/90.0.4430.93 Safari/537.36",WebKit,Chrome,90.0.4430.93,Linux,
41,1,null,null,html-keyboard-response,44,208812,0.0-44.0,IwAR1lKwcBviEdRPpZsd6dBePtLC-fpl5u4k9t8ynITfOeee1nCNrdZxx468o,"<div style=""font-size:60px;"">+</div>","""","""","""","""","""","""","""","""","""","2021-05-05 14:00:29",49.36.243.234,"Mozilla/5.0 (X11; Linux x86_64) AppleWebKit/537.36 (KHTML, like Gecko) Chrome/90.0.4430.93 Safari/537.36",WebKit,Chrome,90.0.4430.93,Linux,
41,1,343.4999999990396,q,html-keyboard-response,45,209158,0.0-45.0,IwAR1lKwcBviEdRPpZsd6dBePtLC-fpl5u4k9t8ynITfOeee1nCNrdZxx468o,"
    <img id = 'img_b1' width = 18% height = 32% style = 'position:absolute;top:10%;left:25%'>
    <img id = 'img_b2' width = 18% height = 32% style = 'position:absolute;top:10%;right:25%'>
    <img id = 'img_b3' width = 18% height = 32% style = 'position:absolute;bottom:10%;left:25%'>
    <img id = 'img_b4' width = 18% height = 32% style = 'position:absolute;bottom:10%;right:25%'>
    <div id = 'cum' style = 'position:absolute;top:5%;right:5%;font-size:calc(18px + 6 * ((100vw - 320px) / 680))'></div>
  ","""","""","""","""","""","""","""","""","""","2021-05-05 14:00:29",49.36.243.234,"Mozilla/5.0 (X11; Linux x86_64) AppleWebKit/537.36 (KHTML, like Gecko) Chrome/90.0.4430.93 Safari/537.36",WebKit,Chrome,90.0.4430.93,Linux,
41,1,null,null,html-keyboard-response,46,210660,0.0-46.0,IwAR1lKwcBviEdRPpZsd6dBePtLC-fpl5u4k9t8ynITfOeee1nCNrdZxx468o,"
    <img id = 'img_b1' width = 18% height = 32% style = 'position:absolute;top:10%;left:25%'>
    <img id = 'img_b2' width = 18% height = 32% style = 'position:absolute;top:10%;right:25%'>
    <img id = 'img_b3' width = 18% height = 32% style = 'position:absolute;bottom:10%;left:25%'>
    <img id = 'img_b4' width = 18% height = 32% style = 'position:absolute;bottom:10%;right:25%'>
    <div id = 'band_txt'></div>
    <div id = 'cum' style = 'position:absolute;top:5%;right:5%;font-size:calc(18px + 6 * ((100vw - 320px) / 680))'></div>
  ","""","""","""","""","""","""","""","""","""","2021-05-05 14:00:29",49.36.243.234,"Mozilla/5.0 (X11; Linux x86_64) AppleWebKit/537.36 (KHTML, like Gecko) Chrome/90.0.4430.93 Safari/537.36",WebKit,Chrome,90.0.4430.93,Linux,
41,1,null,null,html-keyboard-response,47,211912,0.0-47.0,IwAR1lKwcBviEdRPpZsd6dBePtLC-fpl5u4k9t8ynITfOeee1nCNrdZxx468o,"<div style=""font-size:60px;"">+</div>","""","""","""","""","""","""","""","""","""","2021-05-05 14:00:29",49.36.243.234,"Mozilla/5.0 (X11; Linux x86_64) AppleWebKit/537.36 (KHTML, like Gecko) Chrome/90.0.4430.93 Safari/537.36",WebKit,Chrome,90.0.4430.93,Linux,
41,1,331.9999999985157,q,html-keyboard-response,48,212247,0.0-48.0,IwAR1lKwcBviEdRPpZsd6dBePtLC-fpl5u4k9t8ynITfOeee1nCNrdZxx468o,"
    <img id = 'img_b1' width = 18% height = 32% style = 'position:absolute;top:10%;left:25%'>
    <img id = 'img_b2' width = 18% height = 32% style = 'position:absolute;top:10%;right:25%'>
    <img id = 'img_b3' width = 18% height = 32% style = 'position:absolute;bottom:10%;left:25%'>
    <img id = 'img_b4' width = 18% height = 32% style = 'position:absolute;bottom:10%;right:25%'>
    <div id = 'cum' style = 'position:absolute;top:5%;right:5%;font-size:calc(18px + 6 * ((100vw - 320px) / 680))'></div>
  ","""","""","""","""","""","""","""","""","""","2021-05-05 14:00:29",49.36.243.234,"Mozilla/5.0 (X11; Linux x86_64) AppleWebKit/537.36 (KHTML, like Gecko) Chrome/90.0.4430.93 Safari/537.36",WebKit,Chrome,90.0.4430.93,Linux,
41,1,null,null,html-keyboard-response,49,213751,0.0-49.0,IwAR1lKwcBviEdRPpZsd6dBePtLC-fpl5u4k9t8ynITfOeee1nCNrdZxx468o,"
    <img id = 'img_b1' width = 18% height = 32% style = 'position:absolute;top:10%;left:25%'>
    <img id = 'img_b2' width = 18% height = 32% style = 'position:absolute;top:10%;right:25%'>
    <img id = 'img_b3' width = 18% height = 32% style = 'position:absolute;bottom:10%;left:25%'>
    <img id = 'img_b4' width = 18% height = 32% style = 'position:absolute;bottom:10%;right:25%'>
    <div id = 'band_txt'></div>
    <div id = 'cum' style = 'position:absolute;top:5%;right:5%;font-size:calc(18px + 6 * ((100vw - 320px) / 680))'></div>
  ","""","""","""","""","""","""","""","""","""","2021-05-05 14:00:29",49.36.243.234,"Mozilla/5.0 (X11; Linux x86_64) AppleWebKit/537.36 (KHTML, like Gecko) Chrome/90.0.4430.93 Safari/537.36",WebKit,Chrome,90.0.4430.93,Linux,
41,1,null,null,html-keyboard-response,50,215004,0.0-50.0,IwAR1lKwcBviEdRPpZsd6dBePtLC-fpl5u4k9t8ynITfOeee1nCNrdZxx468o,"<div style=""font-size:60px;"">+</div>","""","""","""","""","""","""","""","""","""","2021-05-05 14:00:29",49.36.243.234,"Mozilla/5.0 (X11; Linux x86_64) AppleWebKit/537.36 (KHTML, like Gecko) Chrome/90.0.4430.93 Safari/537.36",WebKit,Chrome,90.0.4430.93,Linux,
41,1,307.36999999862746,p,html-keyboard-response,51,215334,0.0-51.0,IwAR1lKwcBviEdRPpZsd6dBePtLC-fpl5u4k9t8ynITfOeee1nCNrdZxx468o,"
    <img id = 'img_b1' width = 18% height = 32% style = 'position:absolute;top:10%;left:25%'>
    <img id = 'img_b2' width = 18% height = 32% style = 'position:absolute;top:10%;right:25%'>
    <img id = 'img_b3' width = 18% height = 32% style = 'position:absolute;bottom:10%;left:25%'>
    <img id = 'img_b4' width = 18% height = 32% style = 'position:absolute;bottom:10%;right:25%'>
    <div id = 'cum' style = 'position:absolute;top:5%;right:5%;font-size:calc(18px + 6 * ((100vw - 320px) / 680))'></div>
  ","""","""","""","""","""","""","""","""","""","2021-05-05 14:00:29",49.36.243.234,"Mozilla/5.0 (X11; Linux x86_64) AppleWebKit/537.36 (KHTML, like Gecko) Chrome/90.0.4430.93 Safari/537.36",WebKit,Chrome,90.0.4430.93,Linux,
41,1,null,null,html-keyboard-response,52,216838,0.0-52.0,IwAR1lKwcBviEdRPpZsd6dBePtLC-fpl5u4k9t8ynITfOeee1nCNrdZxx468o,"
    <img id = 'img_b1' width = 18% height = 32% style = 'position:absolute;top:10%;left:25%'>
    <img id = 'img_b2' width = 18% height = 32% style = 'position:absolute;top:10%;right:25%'>
    <img id = 'img_b3' width = 18% height = 32% style = 'position:absolute;bottom:10%;left:25%'>
    <img id = 'img_b4' width = 18% height = 32% style = 'position:absolute;bottom:10%;right:25%'>
    <div id = 'band_txt'></div>
    <div id = 'cum' style = 'position:absolute;top:5%;right:5%;font-size:calc(18px + 6 * ((100vw - 320px) / 680))'></div>
  ","""","""","""","""","""","""","""","""","""","2021-05-05 14:00:29",49.36.243.234,"Mozilla/5.0 (X11; Linux x86_64) AppleWebKit/537.36 (KHTML, like Gecko) Chrome/90.0.4430.93 Safari/537.36",WebKit,Chrome,90.0.4430.93,Linux,
41,1,null,null,html-keyboard-response,53,218341,0.0-53.0,IwAR1lKwcBviEdRPpZsd6dBePtLC-fpl5u4k9t8ynITfOeee1nCNrdZxx468o,"<div style=""font-size:60px;"">+</div>","""","""","""","""","""","""","""","""","""","2021-05-05 14:00:29",49.36.243.234,"Mozilla/5.0 (X11; Linux x86_64) AppleWebKit/537.36 (KHTML, like Gecko) Chrome/90.0.4430.93 Safari/537.36",WebKit,Chrome,90.0.4430.93,Linux,
41,1,340.77000000252156,z,html-keyboard-response,54,218685,0.0-54.0,IwAR1lKwcBviEdRPpZsd6dBePtLC-fpl5u4k9t8ynITfOeee1nCNrdZxx468o,"
    <img id = 'img_b1' width = 18% height = 32% style = 'position:absolute;top:10%;left:25%'>
    <img id = 'img_b2' width = 18% height = 32% style = 'position:absolute;top:10%;right:25%'>
    <img id = 'img_b3' width = 18% height = 32% style = 'position:absolute;bottom:10%;left:25%'>
    <img id = 'img_b4' width = 18% height = 32% style = 'position:absolute;bottom:10%;right:25%'>
    <div id = 'cum' style = 'position:absolute;top:5%;right:5%;font-size:calc(18px + 6 * ((100vw - 320px) / 680))'></div>
  ","""","""","""","""","""","""","""","""","""","2021-05-05 14:00:29",49.36.243.234,"Mozilla/5.0 (X11; Linux x86_64) AppleWebKit/537.36 (KHTML, like Gecko) Chrome/90.0.4430.93 Safari/537.36",WebKit,Chrome,90.0.4430.93,Linux,
41,1,null,null,html-keyboard-response,55,220189,0.0-55.0,IwAR1lKwcBviEdRPpZsd6dBePtLC-fpl5u4k9t8ynITfOeee1nCNrdZxx468o,"
    <img id = 'img_b1' width = 18% height = 32% style = 'position:absolute;top:10%;left:25%'>
    <img id = 'img_b2' width = 18% height = 32% style = 'position:absolute;top:10%;right:25%'>
    <img id = 'img_b3' width = 18% height = 32% style = 'position:absolute;bottom:10%;left:25%'>
    <img id = 'img_b4' width = 18% height = 32% style = 'position:absolute;bottom:10%;right:25%'>
    <div id = 'band_txt'></div>
    <div id = 'cum' style = 'position:absolute;top:5%;right:5%;font-size:calc(18px + 6 * ((100vw - 320px) / 680))'></div>
  ","""","""","""","""","""","""","""","""","""","2021-05-05 14:00:29",49.36.243.234,"Mozilla/5.0 (X11; Linux x86_64) AppleWebKit/537.36 (KHTML, like Gecko) Chrome/90.0.4430.93 Safari/537.36",WebKit,Chrome,90.0.4430.93,Linux,
41,1,null,null,html-keyboard-response,56,221941,0.0-56.0,IwAR1lKwcBviEdRPpZsd6dBePtLC-fpl5u4k9t8ynITfOeee1nCNrdZxx468o,"<div style=""font-size:60px;"">+</div>","""","""","""","""","""","""","""","""","""","2021-05-05 14:00:29",49.36.243.234,"Mozilla/5.0 (X11; Linux x86_64) AppleWebKit/537.36 (KHTML, like Gecko) Chrome/90.0.4430.93 Safari/537.36",WebKit,Chrome,90.0.4430.93,Linux,
41,1,631.9999999977881,z,html-keyboard-response,57,222583,0.0-57.0,IwAR1lKwcBviEdRPpZsd6dBePtLC-fpl5u4k9t8ynITfOeee1nCNrdZxx468o,"
    <img id = 'img_b1' width = 18% height = 32% style = 'position:absolute;top:10%;left:25%'>
    <img id = 'img_b2' width = 18% height = 32% style = 'position:absolute;top:10%;right:25%'>
    <img id = 'img_b3' width = 18% height = 32% style = 'position:absolute;bottom:10%;left:25%'>
    <img id = 'img_b4' width = 18% height = 32% style = 'position:absolute;bottom:10%;right:25%'>
    <div id = 'cum' style = 'position:absolute;top:5%;right:5%;font-size:calc(18px + 6 * ((100vw - 320px) / 680))'></div>
  ","""","""","""","""","""","""","""","""","""","2021-05-05 14:00:29",49.36.243.234,"Mozilla/5.0 (X11; Linux x86_64) AppleWebKit/537.36 (KHTML, like Gecko) Chrome/90.0.4430.93 Safari/537.36",WebKit,Chrome,90.0.4430.93,Linux,
41,1,null,null,html-keyboard-response,58,224087,0.0-58.0,IwAR1lKwcBviEdRPpZsd6dBePtLC-fpl5u4k9t8ynITfOeee1nCNrdZxx468o,"
    <img id = 'img_b1' width = 18% height = 32% style = 'position:absolute;top:10%;left:25%'>
    <img id = 'img_b2' width = 18% height = 32% style = 'position:absolute;top:10%;right:25%'>
    <img id = 'img_b3' width = 18% height = 32% style = 'position:absolute;bottom:10%;left:25%'>
    <img id = 'img_b4' width = 18% height = 32% style = 'position:absolute;bottom:10%;right:25%'>
    <div id = 'band_txt'></div>
    <div id = 'cum' style = 'position:absolute;top:5%;right:5%;font-size:calc(18px + 6 * ((100vw - 320px) / 680))'></div>
  ","""","""","""","""","""","""","""","""","""","2021-05-05 14:00:29",49.36.243.234,"Mozilla/5.0 (X11; Linux x86_64) AppleWebKit/537.36 (KHTML, like Gecko) Chrome/90.0.4430.93 Safari/537.36",WebKit,Chrome,90.0.4430.93,Linux,
41,1,null,null,html-keyboard-response,59,225590,0.0-59.0,IwAR1lKwcBviEdRPpZsd6dBePtLC-fpl5u4k9t8ynITfOeee1nCNrdZxx468o,"<div style=""font-size:60px;"">+</div>","""","""","""","""","""","""","""","""","""","2021-05-05 14:00:29",49.36.243.234,"Mozilla/5.0 (X11; Linux x86_64) AppleWebKit/537.36 (KHTML, like Gecko) Chrome/90.0.4430.93 Safari/537.36",WebKit,Chrome,90.0.4430.93,Linux,
41,1,313.720000001922,z,html-keyboard-response,60,225907,0.0-60.0,IwAR1lKwcBviEdRPpZsd6dBePtLC-fpl5u4k9t8ynITfOeee1nCNrdZxx468o,"
    <img id = 'img_b1' width = 18% height = 32% style = 'position:absolute;top:10%;left:25%'>
    <img id = 'img_b2' width = 18% height = 32% style = 'position:absolute;top:10%;right:25%'>
    <img id = 'img_b3' width = 18% height = 32% style = 'position:absolute;bottom:10%;left:25%'>
    <img id = 'img_b4' width = 18% height = 32% style = 'position:absolute;bottom:10%;right:25%'>
    <div id = 'cum' style = 'position:absolute;top:5%;right:5%;font-size:calc(18px + 6 * ((100vw - 320px) / 680))'></div>
  ","""","""","""","""","""","""","""","""","""","2021-05-05 14:00:29",49.36.243.234,"Mozilla/5.0 (X11; Linux x86_64) AppleWebKit/537.36 (KHTML, like Gecko) Chrome/90.0.4430.93 Safari/537.36",WebKit,Chrome,90.0.4430.93,Linux,
41,1,null,null,html-keyboard-response,61,227410,0.0-61.0,IwAR1lKwcBviEdRPpZsd6dBePtLC-fpl5u4k9t8ynITfOeee1nCNrdZxx468o,"
    <img id = 'img_b1' width = 18% height = 32% style = 'position:absolute;top:10%;left:25%'>
    <img id = 'img_b2' width = 18% height = 32% style = 'position:absolute;top:10%;right:25%'>
    <img id = 'img_b3' width = 18% height = 32% style = 'position:absolute;bottom:10%;left:25%'>
    <img id = 'img_b4' width = 18% height = 32% style = 'position:absolute;bottom:10%;right:25%'>
    <div id = 'band_txt'></div>
    <div id = 'cum' style = 'position:absolute;top:5%;right:5%;font-size:calc(18px + 6 * ((100vw - 320px) / 680))'></div>
  ","""","""","""","""","""","""","""","""","""","2021-05-05 14:00:29",49.36.243.234,"Mozilla/5.0 (X11; Linux x86_64) AppleWebKit/537.36 (KHTML, like Gecko) Chrome/90.0.4430.93 Safari/537.36",WebKit,Chrome,90.0.4430.93,Linux,
41,1,null,null,html-keyboard-response,62,228913,0.0-62.0,IwAR1lKwcBviEdRPpZsd6dBePtLC-fpl5u4k9t8ynITfOeee1nCNrdZxx468o,"<div style=""font-size:60px;"">+</div>","""","""","""","""","""","""","""","""","""","2021-05-05 14:00:29",49.36.243.234,"Mozilla/5.0 (X11; Linux x86_64) AppleWebKit/537.36 (KHTML, like Gecko) Chrome/90.0.4430.93 Safari/537.36",WebKit,Chrome,90.0.4430.93,Linux,
41,1,323.12000000092667,z,html-keyboard-response,63,229243,0.0-63.0,IwAR1lKwcBviEdRPpZsd6dBePtLC-fpl5u4k9t8ynITfOeee1nCNrdZxx468o,"
    <img id = 'img_b1' width = 18% height = 32% style = 'position:absolute;top:10%;left:25%'>
    <img id = 'img_b2' width = 18% height = 32% style = 'position:absolute;top:10%;right:25%'>
    <img id = 'img_b3' width = 18% height = 32% style = 'position:absolute;bottom:10%;left:25%'>
    <img id = 'img_b4' width = 18% height = 32% style = 'position:absolute;bottom:10%;right:25%'>
    <div id = 'cum' style = 'position:absolute;top:5%;right:5%;font-size:calc(18px + 6 * ((100vw - 320px) / 680))'></div>
  ","""","""","""","""","""","""","""","""","""","2021-05-05 14:00:29",49.36.243.234,"Mozilla/5.0 (X11; Linux x86_64) AppleWebKit/537.36 (KHTML, like Gecko) Chrome/90.0.4430.93 Safari/537.36",WebKit,Chrome,90.0.4430.93,Linux,
41,1,null,null,html-keyboard-response,64,230748,0.0-64.0,IwAR1lKwcBviEdRPpZsd6dBePtLC-fpl5u4k9t8ynITfOeee1nCNrdZxx468o,"
    <img id = 'img_b1' width = 18% height = 32% style = 'position:absolute;top:10%;left:25%'>
    <img id = 'img_b2' width = 18% height = 32% style = 'position:absolute;top:10%;right:25%'>
    <img id = 'img_b3' width = 18% height = 32% style = 'position:absolute;bottom:10%;left:25%'>
    <img id = 'img_b4' width = 18% height = 32% style = 'position:absolute;bottom:10%;right:25%'>
    <div id = 'band_txt'></div>
    <div id = 'cum' style = 'position:absolute;top:5%;right:5%;font-size:calc(18px + 6 * ((100vw - 320px) / 680))'></div>
  ","""","""","""","""","""","""","""","""","""","2021-05-05 14:00:29",49.36.243.234,"Mozilla/5.0 (X11; Linux x86_64) AppleWebKit/537.36 (KHTML, like Gecko) Chrome/90.0.4430.93 Safari/537.36",WebKit,Chrome,90.0.4430.93,Linux,
41,1,null,null,html-keyboard-response,65,231500,0.0-65.0,IwAR1lKwcBviEdRPpZsd6dBePtLC-fpl5u4k9t8ynITfOeee1nCNrdZxx468o,"<div style=""font-size:60px;"">+</div>","""","""","""","""","""","""","""","""","""","2021-05-05 14:00:29",49.36.243.234,"Mozilla/5.0 (X11; Linux x86_64) AppleWebKit/537.36 (KHTML, like Gecko) Chrome/90.0.4430.93 Safari/537.36",WebKit,Chrome,90.0.4430.93,Linux,
41,1,531.7749999994703,z,html-keyboard-response,66,232035,0.0-66.0,IwAR1lKwcBviEdRPpZsd6dBePtLC-fpl5u4k9t8ynITfOeee1nCNrdZxx468o,"
    <img id = 'img_b1' width = 18% height = 32% style = 'position:absolute;top:10%;left:25%'>
    <img id = 'img_b2' width = 18% height = 32% style = 'position:absolute;top:10%;right:25%'>
    <img id = 'img_b3' width = 18% height = 32% style = 'position:absolute;bottom:10%;left:25%'>
    <img id = 'img_b4' width = 18% height = 32% style = 'position:absolute;bottom:10%;right:25%'>
    <div id = 'cum' style = 'position:absolute;top:5%;right:5%;font-size:calc(18px + 6 * ((100vw - 320px) / 680))'></div>
  ","""","""","""","""","""","""","""","""","""","2021-05-05 14:00:29",49.36.243.234,"Mozilla/5.0 (X11; Linux x86_64) AppleWebKit/537.36 (KHTML, like Gecko) Chrome/90.0.4430.93 Safari/537.36",WebKit,Chrome,90.0.4430.93,Linux,
41,1,null,null,html-keyboard-response,67,233539,0.0-67.0,IwAR1lKwcBviEdRPpZsd6dBePtLC-fpl5u4k9t8ynITfOeee1nCNrdZxx468o,"
    <img id = 'img_b1' width = 18% height = 32% style = 'position:absolute;top:10%;left:25%'>
    <img id = 'img_b2' width = 18% height = 32% style = 'position:absolute;top:10%;right:25%'>
    <img id = 'img_b3' width = 18% height = 32% style = 'position:absolute;bottom:10%;left:25%'>
    <img id = 'img_b4' width = 18% height = 32% style = 'position:absolute;bottom:10%;right:25%'>
    <div id = 'band_txt'></div>
    <div id = 'cum' style = 'position:absolute;top:5%;right:5%;font-size:calc(18px + 6 * ((100vw - 320px) / 680))'></div>
  ","""","""","""","""","""","""","""","""","""","2021-05-05 14:00:29",49.36.243.234,"Mozilla/5.0 (X11; Linux x86_64) AppleWebKit/537.36 (KHTML, like Gecko) Chrome/90.0.4430.93 Safari/537.36",WebKit,Chrome,90.0.4430.93,Linux,
41,1,null,null,html-keyboard-response,68,235041,0.0-68.0,IwAR1lKwcBviEdRPpZsd6dBePtLC-fpl5u4k9t8ynITfOeee1nCNrdZxx468o,"<div style=""font-size:60px;"">+</div>","""","""","""","""","""","""","""","""","""","2021-05-05 14:00:29",49.36.243.234,"Mozilla/5.0 (X11; Linux x86_64) AppleWebKit/537.36 (KHTML, like Gecko) Chrome/90.0.4430.93 Safari/537.36",WebKit,Chrome,90.0.4430.93,Linux,
41,1,331.3799999996263,z,html-keyboard-response,69,235379,0.0-69.0,IwAR1lKwcBviEdRPpZsd6dBePtLC-fpl5u4k9t8ynITfOeee1nCNrdZxx468o,"
    <img id = 'img_b1' width = 18% height = 32% style = 'position:absolute;top:10%;left:25%'>
    <img id = 'img_b2' width = 18% height = 32% style = 'position:absolute;top:10%;right:25%'>
    <img id = 'img_b3' width = 18% height = 32% style = 'position:absolute;bottom:10%;left:25%'>
    <img id = 'img_b4' width = 18% height = 32% style = 'position:absolute;bottom:10%;right:25%'>
    <div id = 'cum' style = 'position:absolute;top:5%;right:5%;font-size:calc(18px + 6 * ((100vw - 320px) / 680))'></div>
  ","""","""","""","""","""","""","""","""","""","2021-05-05 14:00:29",49.36.243.234,"Mozilla/5.0 (X11; Linux x86_64) AppleWebKit/537.36 (KHTML, like Gecko) Chrome/90.0.4430.93 Safari/537.36",WebKit,Chrome,90.0.4430.93,Linux,
41,1,null,null,html-keyboard-response,70,236884,0.0-70.0,IwAR1lKwcBviEdRPpZsd6dBePtLC-fpl5u4k9t8ynITfOeee1nCNrdZxx468o,"
    <img id = 'img_b1' width = 18% height = 32% style = 'position:absolute;top:10%;left:25%'>
    <img id = 'img_b2' width = 18% height = 32% style = 'position:absolute;top:10%;right:25%'>
    <img id = 'img_b3' width = 18% height = 32% style = 'position:absolute;bottom:10%;left:25%'>
    <img id = 'img_b4' width = 18% height = 32% style = 'position:absolute;bottom:10%;right:25%'>
    <div id = 'band_txt'></div>
    <div id = 'cum' style = 'position:absolute;top:5%;right:5%;font-size:calc(18px + 6 * ((100vw - 320px) / 680))'></div>
  ","""","""","""","""","""","""","""","""","""","2021-05-05 14:00:29",49.36.243.234,"Mozilla/5.0 (X11; Linux x86_64) AppleWebKit/537.36 (KHTML, like Gecko) Chrome/90.0.4430.93 Safari/537.36",WebKit,Chrome,90.0.4430.93,Linux,
41,1,null,null,html-keyboard-response,71,238136,0.0-71.0,IwAR1lKwcBviEdRPpZsd6dBePtLC-fpl5u4k9t8ynITfOeee1nCNrdZxx468o,"<div style=""font-size:60px;"">+</div>","""","""","""","""","""","""","""","""","""","2021-05-05 14:00:29",49.36.243.234,"Mozilla/5.0 (X11; Linux x86_64) AppleWebKit/537.36 (KHTML, like Gecko) Chrome/90.0.4430.93 Safari/537.36",WebKit,Chrome,90.0.4430.93,Linux,
41,1,373.4650000005786,z,html-keyboard-response,72,238513,0.0-72.0,IwAR1lKwcBviEdRPpZsd6dBePtLC-fpl5u4k9t8ynITfOeee1nCNrdZxx468o,"
    <img id = 'img_b1' width = 18% height = 32% style = 'position:absolute;top:10%;left:25%'>
    <img id = 'img_b2' width = 18% height = 32% style = 'position:absolute;top:10%;right:25%'>
    <img id = 'img_b3' width = 18% height = 32% style = 'position:absolute;bottom:10%;left:25%'>
    <img id = 'img_b4' width = 18% height = 32% style = 'position:absolute;bottom:10%;right:25%'>
    <div id = 'cum' style = 'position:absolute;top:5%;right:5%;font-size:calc(18px + 6 * ((100vw - 320px) / 680))'></div>
  ","""","""","""","""","""","""","""","""","""","2021-05-05 14:00:29",49.36.243.234,"Mozilla/5.0 (X11; Linux x86_64) AppleWebKit/537.36 (KHTML, like Gecko) Chrome/90.0.4430.93 Safari/537.36",WebKit,Chrome,90.0.4430.93,Linux,
41,1,null,null,html-keyboard-response,73,240017,0.0-73.0,IwAR1lKwcBviEdRPpZsd6dBePtLC-fpl5u4k9t8ynITfOeee1nCNrdZxx468o,"
    <img id = 'img_b1' width = 18% height = 32% style = 'position:absolute;top:10%;left:25%'>
    <img id = 'img_b2' width = 18% height = 32% style = 'position:absolute;top:10%;right:25%'>
    <img id = 'img_b3' width = 18% height = 32% style = 'position:absolute;bottom:10%;left:25%'>
    <img id = 'img_b4' width = 18% height = 32% style = 'position:absolute;bottom:10%;right:25%'>
    <div id = 'band_txt'></div>
    <div id = 'cum' style = 'position:absolute;top:5%;right:5%;font-size:calc(18px + 6 * ((100vw - 320px) / 680))'></div>
  ","""","""","""","""","""","""","""","""","""","2021-05-05 14:00:29",49.36.243.234,"Mozilla/5.0 (X11; Linux x86_64) AppleWebKit/537.36 (KHTML, like Gecko) Chrome/90.0.4430.93 Safari/537.36",WebKit,Chrome,90.0.4430.93,Linux,
41,1,null,null,html-keyboard-response,74,241019,0.0-74.0,IwAR1lKwcBviEdRPpZsd6dBePtLC-fpl5u4k9t8ynITfOeee1nCNrdZxx468o,"<div style=""font-size:60px;"">+</div>","""","""","""","""","""","""","""","""","""","2021-05-05 14:00:29",49.36.243.234,"Mozilla/5.0 (X11; Linux x86_64) AppleWebKit/537.36 (KHTML, like Gecko) Chrome/90.0.4430.93 Safari/537.36",WebKit,Chrome,90.0.4430.93,Linux,
41,1,318.1800000020303,z,html-keyboard-response,75,241344,0.0-75.0,IwAR1lKwcBviEdRPpZsd6dBePtLC-fpl5u4k9t8ynITfOeee1nCNrdZxx468o,"
    <img id = 'img_b1' width = 18% height = 32% style = 'position:absolute;top:10%;left:25%'>
    <img id = 'img_b2' width = 18% height = 32% style = 'position:absolute;top:10%;right:25%'>
    <img id = 'img_b3' width = 18% height = 32% style = 'position:absolute;bottom:10%;left:25%'>
    <img id = 'img_b4' width = 18% height = 32% style = 'position:absolute;bottom:10%;right:25%'>
    <div id = 'cum' style = 'position:absolute;top:5%;right:5%;font-size:calc(18px + 6 * ((100vw - 320px) / 680))'></div>
  ","""","""","""","""","""","""","""","""","""","2021-05-05 14:00:29",49.36.243.234,"Mozilla/5.0 (X11; Linux x86_64) AppleWebKit/537.36 (KHTML, like Gecko) Chrome/90.0.4430.93 Safari/537.36",WebKit,Chrome,90.0.4430.93,Linux,
41,1,null,null,html-keyboard-response,76,242848,0.0-76.0,IwAR1lKwcBviEdRPpZsd6dBePtLC-fpl5u4k9t8ynITfOeee1nCNrdZxx468o,"
    <img id = 'img_b1' width = 18% height = 32% style = 'position:absolute;top:10%;left:25%'>
    <img id = 'img_b2' width = 18% height = 32% style = 'position:absolute;top:10%;right:25%'>
    <img id = 'img_b3' width = 18% height = 32% style = 'position:absolute;bottom:10%;left:25%'>
    <img id = 'img_b4' width = 18% height = 32% style = 'position:absolute;bottom:10%;right:25%'>
    <div id = 'band_txt'></div>
    <div id = 'cum' style = 'position:absolute;top:5%;right:5%;font-size:calc(18px + 6 * ((100vw - 320px) / 680))'></div>
  ","""","""","""","""","""","""","""","""","""","2021-05-05 14:00:29",49.36.243.234,"Mozilla/5.0 (X11; Linux x86_64) AppleWebKit/537.36 (KHTML, like Gecko) Chrome/90.0.4430.93 Safari/537.36",WebKit,Chrome,90.0.4430.93,Linux,
41,1,null,null,html-keyboard-response,77,244600,0.0-77.0,IwAR1lKwcBviEdRPpZsd6dBePtLC-fpl5u4k9t8ynITfOeee1nCNrdZxx468o,"<div style=""font-size:60px;"">+</div>","""","""","""","""","""","""","""","""","""","2021-05-05 14:00:29",49.36.243.234,"Mozilla/5.0 (X11; Linux x86_64) AppleWebKit/537.36 (KHTML, like Gecko) Chrome/90.0.4430.93 Safari/537.36",WebKit,Chrome,90.0.4430.93,Linux,
41,1,328.6100000004808,z,html-keyboard-response,78,244932,0.0-78.0,IwAR1lKwcBviEdRPpZsd6dBePtLC-fpl5u4k9t8ynITfOeee1nCNrdZxx468o,"
    <img id = 'img_b1' width = 18% height = 32% style = 'position:absolute;top:10%;left:25%'>
    <img id = 'img_b2' width = 18% height = 32% style = 'position:absolute;top:10%;right:25%'>
    <img id = 'img_b3' width = 18% height = 32% style = 'position:absolute;bottom:10%;left:25%'>
    <img id = 'img_b4' width = 18% height = 32% style = 'position:absolute;bottom:10%;right:25%'>
    <div id = 'cum' style = 'position:absolute;top:5%;right:5%;font-size:calc(18px + 6 * ((100vw - 320px) / 680))'></div>
  ","""","""","""","""","""","""","""","""","""","2021-05-05 14:00:29",49.36.243.234,"Mozilla/5.0 (X11; Linux x86_64) AppleWebKit/537.36 (KHTML, like Gecko) Chrome/90.0.4430.93 Safari/537.36",WebKit,Chrome,90.0.4430.93,Linux,
41,1,null,null,html-keyboard-response,79,246435,0.0-79.0,IwAR1lKwcBviEdRPpZsd6dBePtLC-fpl5u4k9t8ynITfOeee1nCNrdZxx468o,"
    <img id = 'img_b1' width = 18% height = 32% style = 'position:absolute;top:10%;left:25%'>
    <img id = 'img_b2' width = 18% height = 32% style = 'position:absolute;top:10%;right:25%'>
    <img id = 'img_b3' width = 18% height = 32% style = 'position:absolute;bottom:10%;left:25%'>
    <img id = 'img_b4' width = 18% height = 32% style = 'position:absolute;bottom:10%;right:25%'>
    <div id = 'band_txt'></div>
    <div id = 'cum' style = 'position:absolute;top:5%;right:5%;font-size:calc(18px + 6 * ((100vw - 320px) / 680))'></div>
  ","""","""","""","""","""","""","""","""","""","2021-05-05 14:00:29",49.36.243.234,"Mozilla/5.0 (X11; Linux x86_64) AppleWebKit/537.36 (KHTML, like Gecko) Chrome/90.0.4430.93 Safari/537.36",WebKit,Chrome,90.0.4430.93,Linux,
41,1,null,null,html-keyboard-response,80,248187,0.0-80.0,IwAR1lKwcBviEdRPpZsd6dBePtLC-fpl5u4k9t8ynITfOeee1nCNrdZxx468o,"<div style=""font-size:60px;"">+</div>","""","""","""","""","""","""","""","""","""","2021-05-05 14:00:29",49.36.243.234,"Mozilla/5.0 (X11; Linux x86_64) AppleWebKit/537.36 (KHTML, like Gecko) Chrome/90.0.4430.93 Safari/537.36",WebKit,Chrome,90.0.4430.93,Linux,
41,1,289.9649999999383,z,html-keyboard-response,81,248491,0.0-81.0,IwAR1lKwcBviEdRPpZsd6dBePtLC-fpl5u4k9t8ynITfOeee1nCNrdZxx468o,"
    <img id = 'img_b1' width = 18% height = 32% style = 'position:absolute;top:10%;left:25%'>
    <img id = 'img_b2' width = 18% height = 32% style = 'position:absolute;top:10%;right:25%'>
    <img id = 'img_b3' width = 18% height = 32% style = 'position:absolute;bottom:10%;left:25%'>
    <img id = 'img_b4' width = 18% height = 32% style = 'position:absolute;bottom:10%;right:25%'>
    <div id = 'cum' style = 'position:absolute;top:5%;right:5%;font-size:calc(18px + 6 * ((100vw - 320px) / 680))'></div>
  ","""","""","""","""","""","""","""","""","""","2021-05-05 14:00:29",49.36.243.234,"Mozilla/5.0 (X11; Linux x86_64) AppleWebKit/537.36 (KHTML, like Gecko) Chrome/90.0.4430.93 Safari/537.36",WebKit,Chrome,90.0.4430.93,Linux,
41,1,null,null,html-keyboard-response,82,249996,0.0-82.0,IwAR1lKwcBviEdRPpZsd6dBePtLC-fpl5u4k9t8ynITfOeee1nCNrdZxx468o,"
    <img id = 'img_b1' width = 18% height = 32% style = 'position:absolute;top:10%;left:25%'>
    <img id = 'img_b2' width = 18% height = 32% style = 'position:absolute;top:10%;right:25%'>
    <img id = 'img_b3' width = 18% height = 32% style = 'position:absolute;bottom:10%;left:25%'>
    <img id = 'img_b4' width = 18% height = 32% style = 'position:absolute;bottom:10%;right:25%'>
    <div id = 'band_txt'></div>
    <div id = 'cum' style = 'position:absolute;top:5%;right:5%;font-size:calc(18px + 6 * ((100vw - 320px) / 680))'></div>
  ","""","""","""","""","""","""","""","""","""","2021-05-05 14:00:29",49.36.243.234,"Mozilla/5.0 (X11; Linux x86_64) AppleWebKit/537.36 (KHTML, like Gecko) Chrome/90.0.4430.93 Safari/537.36",WebKit,Chrome,90.0.4430.93,Linux,
41,1,null,null,html-keyboard-response,83,251248,0.0-83.0,IwAR1lKwcBviEdRPpZsd6dBePtLC-fpl5u4k9t8ynITfOeee1nCNrdZxx468o,"<div style=""font-size:60px;"">+</div>","""","""","""","""","""","""","""","""","""","2021-05-05 14:00:29",49.36.243.234,"Mozilla/5.0 (X11; Linux x86_64) AppleWebKit/537.36 (KHTML, like Gecko) Chrome/90.0.4430.93 Safari/537.36",WebKit,Chrome,90.0.4430.93,Linux,
41,1,309.3249999983527,z,html-keyboard-response,84,251560,0.0-84.0,IwAR1lKwcBviEdRPpZsd6dBePtLC-fpl5u4k9t8ynITfOeee1nCNrdZxx468o,"
    <img id = 'img_b1' width = 18% height = 32% style = 'position:absolute;top:10%;left:25%'>
    <img id = 'img_b2' width = 18% height = 32% style = 'position:absolute;top:10%;right:25%'>
    <img id = 'img_b3' width = 18% height = 32% style = 'position:absolute;bottom:10%;left:25%'>
    <img id = 'img_b4' width = 18% height = 32% style = 'position:absolute;bottom:10%;right:25%'>
    <div id = 'cum' style = 'position:absolute;top:5%;right:5%;font-size:calc(18px + 6 * ((100vw - 320px) / 680))'></div>
  ","""","""","""","""","""","""","""","""","""","2021-05-05 14:00:29",49.36.243.234,"Mozilla/5.0 (X11; Linux x86_64) AppleWebKit/537.36 (KHTML, like Gecko) Chrome/90.0.4430.93 Safari/537.36",WebKit,Chrome,90.0.4430.93,Linux,
41,1,null,null,html-keyboard-response,85,253064,0.0-85.0,IwAR1lKwcBviEdRPpZsd6dBePtLC-fpl5u4k9t8ynITfOeee1nCNrdZxx468o,"
    <img id = 'img_b1' width = 18% height = 32% style = 'position:absolute;top:10%;left:25%'>
    <img id = 'img_b2' width = 18% height = 32% style = 'position:absolute;top:10%;right:25%'>
    <img id = 'img_b3' width = 18% height = 32% style = 'position:absolute;bottom:10%;left:25%'>
    <img id = 'img_b4' width = 18% height = 32% style = 'position:absolute;bottom:10%;right:25%'>
    <div id = 'band_txt'></div>
    <div id = 'cum' style = 'position:absolute;top:5%;right:5%;font-size:calc(18px + 6 * ((100vw - 320px) / 680))'></div>
  ","""","""","""","""","""","""","""","""","""","2021-05-05 14:00:29",49.36.243.234,"Mozilla/5.0 (X11; Linux x86_64) AppleWebKit/537.36 (KHTML, like Gecko) Chrome/90.0.4430.93 Safari/537.36",WebKit,Chrome,90.0.4430.93,Linux,
41,1,null,null,html-keyboard-response,86,254817,0.0-86.0,IwAR1lKwcBviEdRPpZsd6dBePtLC-fpl5u4k9t8ynITfOeee1nCNrdZxx468o,"<div style=""font-size:60px;"">+</div>","""","""","""","""","""","""","""","""","""","2021-05-05 14:00:29",49.36.243.234,"Mozilla/5.0 (X11; Linux x86_64) AppleWebKit/537.36 (KHTML, like Gecko) Chrome/90.0.4430.93 Safari/537.36",WebKit,Chrome,90.0.4430.93,Linux,
41,1,318.24000000051456,z,html-keyboard-response,87,255148,0.0-87.0,IwAR1lKwcBviEdRPpZsd6dBePtLC-fpl5u4k9t8ynITfOeee1nCNrdZxx468o,"
    <img id = 'img_b1' width = 18% height = 32% style = 'position:absolute;top:10%;left:25%'>
    <img id = 'img_b2' width = 18% height = 32% style = 'position:absolute;top:10%;right:25%'>
    <img id = 'img_b3' width = 18% height = 32% style = 'position:absolute;bottom:10%;left:25%'>
    <img id = 'img_b4' width = 18% height = 32% style = 'position:absolute;bottom:10%;right:25%'>
    <div id = 'cum' style = 'position:absolute;top:5%;right:5%;font-size:calc(18px + 6 * ((100vw - 320px) / 680))'></div>
  ","""","""","""","""","""","""","""","""","""","2021-05-05 14:00:29",49.36.243.234,"Mozilla/5.0 (X11; Linux x86_64) AppleWebKit/537.36 (KHTML, like Gecko) Chrome/90.0.4430.93 Safari/537.36",WebKit,Chrome,90.0.4430.93,Linux,
41,1,null,null,html-keyboard-response,88,256652,0.0-88.0,IwAR1lKwcBviEdRPpZsd6dBePtLC-fpl5u4k9t8ynITfOeee1nCNrdZxx468o,"
    <img id = 'img_b1' width = 18% height = 32% style = 'position:absolute;top:10%;left:25%'>
    <img id = 'img_b2' width = 18% height = 32% style = 'position:absolute;top:10%;right:25%'>
    <img id = 'img_b3' width = 18% height = 32% style = 'position:absolute;bottom:10%;left:25%'>
    <img id = 'img_b4' width = 18% height = 32% style = 'position:absolute;bottom:10%;right:25%'>
    <div id = 'band_txt'></div>
    <div id = 'cum' style = 'position:absolute;top:5%;right:5%;font-size:calc(18px + 6 * ((100vw - 320px) / 680))'></div>
  ","""","""","""","""","""","""","""","""","""","2021-05-05 14:00:29",49.36.243.234,"Mozilla/5.0 (X11; Linux x86_64) AppleWebKit/537.36 (KHTML, like Gecko) Chrome/90.0.4430.93 Safari/537.36",WebKit,Chrome,90.0.4430.93,Linux,
41,1,null,null,html-keyboard-response,89,257654,0.0-89.0,IwAR1lKwcBviEdRPpZsd6dBePtLC-fpl5u4k9t8ynITfOeee1nCNrdZxx468o,"<div style=""font-size:60px;"">+</div>","""","""","""","""","""","""","""","""","""","2021-05-05 14:00:29",49.36.243.234,"Mozilla/5.0 (X11; Linux x86_64) AppleWebKit/537.36 (KHTML, like Gecko) Chrome/90.0.4430.93 Safari/537.36",WebKit,Chrome,90.0.4430.93,Linux,
41,1,287.48999999879743,z,html-keyboard-response,90,257944,0.0-90.0,IwAR1lKwcBviEdRPpZsd6dBePtLC-fpl5u4k9t8ynITfOeee1nCNrdZxx468o,"
    <img id = 'img_b1' width = 18% height = 32% style = 'position:absolute;top:10%;left:25%'>
    <img id = 'img_b2' width = 18% height = 32% style = 'position:absolute;top:10%;right:25%'>
    <img id = 'img_b3' width = 18% height = 32% style = 'position:absolute;bottom:10%;left:25%'>
    <img id = 'img_b4' width = 18% height = 32% style = 'position:absolute;bottom:10%;right:25%'>
    <div id = 'cum' style = 'position:absolute;top:5%;right:5%;font-size:calc(18px + 6 * ((100vw - 320px) / 680))'></div>
  ","""","""","""","""","""","""","""","""","""","2021-05-05 14:00:29",49.36.243.234,"Mozilla/5.0 (X11; Linux x86_64) AppleWebKit/537.36 (KHTML, like Gecko) Chrome/90.0.4430.93 Safari/537.36",WebKit,Chrome,90.0.4430.93,Linux,
41,1,null,null,html-keyboard-response,91,259448,0.0-91.0,IwAR1lKwcBviEdRPpZsd6dBePtLC-fpl5u4k9t8ynITfOeee1nCNrdZxx468o,"
    <img id = 'img_b1' width = 18% height = 32% style = 'position:absolute;top:10%;left:25%'>
    <img id = 'img_b2' width = 18% height = 32% style = 'position:absolute;top:10%;right:25%'>
    <img id = 'img_b3' width = 18% height = 32% style = 'position:absolute;bottom:10%;left:25%'>
    <img id = 'img_b4' width = 18% height = 32% style = 'position:absolute;bottom:10%;right:25%'>
    <div id = 'band_txt'></div>
    <div id = 'cum' style = 'position:absolute;top:5%;right:5%;font-size:calc(18px + 6 * ((100vw - 320px) / 680))'></div>
  ","""","""","""","""","""","""","""","""","""","2021-05-05 14:00:29",49.36.243.234,"Mozilla/5.0 (X11; Linux x86_64) AppleWebKit/537.36 (KHTML, like Gecko) Chrome/90.0.4430.93 Safari/537.36",WebKit,Chrome,90.0.4430.93,Linux,
41,1,null,null,html-keyboard-response,92,261200,0.0-92.0,IwAR1lKwcBviEdRPpZsd6dBePtLC-fpl5u4k9t8ynITfOeee1nCNrdZxx468o,"<div style=""font-size:60px;"">+</div>","""","""","""","""","""","""","""","""","""","2021-05-05 14:00:29",49.36.243.234,"Mozilla/5.0 (X11; Linux x86_64) AppleWebKit/537.36 (KHTML, like Gecko) Chrome/90.0.4430.93 Safari/537.36",WebKit,Chrome,90.0.4430.93,Linux,
41,1,291.51500000077067,z,html-keyboard-response,93,261499,0.0-93.0,IwAR1lKwcBviEdRPpZsd6dBePtLC-fpl5u4k9t8ynITfOeee1nCNrdZxx468o,"
    <img id = 'img_b1' width = 18% height = 32% style = 'position:absolute;top:10%;left:25%'>
    <img id = 'img_b2' width = 18% height = 32% style = 'position:absolute;top:10%;right:25%'>
    <img id = 'img_b3' width = 18% height = 32% style = 'position:absolute;bottom:10%;left:25%'>
    <img id = 'img_b4' width = 18% height = 32% style = 'position:absolute;bottom:10%;right:25%'>
    <div id = 'cum' style = 'position:absolute;top:5%;right:5%;font-size:calc(18px + 6 * ((100vw - 320px) / 680))'></div>
  ","""","""","""","""","""","""","""","""","""","2021-05-05 14:00:29",49.36.243.234,"Mozilla/5.0 (X11; Linux x86_64) AppleWebKit/537.36 (KHTML, like Gecko) Chrome/90.0.4430.93 Safari/537.36",WebKit,Chrome,90.0.4430.93,Linux,
41,1,null,null,html-keyboard-response,94,263003,0.0-94.0,IwAR1lKwcBviEdRPpZsd6dBePtLC-fpl5u4k9t8ynITfOeee1nCNrdZxx468o,"
    <img id = 'img_b1' width = 18% height = 32% style = 'position:absolute;top:10%;left:25%'>
    <img id = 'img_b2' width = 18% height = 32% style = 'position:absolute;top:10%;right:25%'>
    <img id = 'img_b3' width = 18% height = 32% style = 'position:absolute;bottom:10%;left:25%'>
    <img id = 'img_b4' width = 18% height = 32% style = 'position:absolute;bottom:10%;right:25%'>
    <div id = 'band_txt'></div>
    <div id = 'cum' style = 'position:absolute;top:5%;right:5%;font-size:calc(18px + 6 * ((100vw - 320px) / 680))'></div>
  ","""","""","""","""","""","""","""","""","""","2021-05-05 14:00:29",49.36.243.234,"Mozilla/5.0 (X11; Linux x86_64) AppleWebKit/537.36 (KHTML, like Gecko) Chrome/90.0.4430.93 Safari/537.36",WebKit,Chrome,90.0.4430.93,Linux,
41,1,null,null,html-keyboard-response,95,264256,0.0-95.0,IwAR1lKwcBviEdRPpZsd6dBePtLC-fpl5u4k9t8ynITfOeee1nCNrdZxx468o,"<div style=""font-size:60px;"">+</div>","""","""","""","""","""","""","""","""","""","2021-05-05 14:00:29",49.36.243.234,"Mozilla/5.0 (X11; Linux x86_64) AppleWebKit/537.36 (KHTML, like Gecko) Chrome/90.0.4430.93 Safari/537.36",WebKit,Chrome,90.0.4430.93,Linux,
41,1,566.8249999980326,z,html-keyboard-response,96,264826,0.0-96.0,IwAR1lKwcBviEdRPpZsd6dBePtLC-fpl5u4k9t8ynITfOeee1nCNrdZxx468o,"
    <img id = 'img_b1' width = 18% height = 32% style = 'position:absolute;top:10%;left:25%'>
    <img id = 'img_b2' width = 18% height = 32% style = 'position:absolute;top:10%;right:25%'>
    <img id = 'img_b3' width = 18% height = 32% style = 'position:absolute;bottom:10%;left:25%'>
    <img id = 'img_b4' width = 18% height = 32% style = 'position:absolute;bottom:10%;right:25%'>
    <div id = 'cum' style = 'position:absolute;top:5%;right:5%;font-size:calc(18px + 6 * ((100vw - 320px) / 680))'></div>
  ","""","""","""","""","""","""","""","""","""","2021-05-05 14:00:29",49.36.243.234,"Mozilla/5.0 (X11; Linux x86_64) AppleWebKit/537.36 (KHTML, like Gecko) Chrome/90.0.4430.93 Safari/537.36",WebKit,Chrome,90.0.4430.93,Linux,
41,1,null,null,html-keyboard-response,97,266329,0.0-97.0,IwAR1lKwcBviEdRPpZsd6dBePtLC-fpl5u4k9t8ynITfOeee1nCNrdZxx468o,"
    <img id = 'img_b1' width = 18% height = 32% style = 'position:absolute;top:10%;left:25%'>
    <img id = 'img_b2' width = 18% height = 32% style = 'position:absolute;top:10%;right:25%'>
    <img id = 'img_b3' width = 18% height = 32% style = 'position:absolute;bottom:10%;left:25%'>
    <img id = 'img_b4' width = 18% height = 32% style = 'position:absolute;bottom:10%;right:25%'>
    <div id = 'band_txt'></div>
    <div id = 'cum' style = 'position:absolute;top:5%;right:5%;font-size:calc(18px + 6 * ((100vw - 320px) / 680))'></div>
  ","""","""","""","""","""","""","""","""","""","2021-05-05 14:00:29",49.36.243.234,"Mozilla/5.0 (X11; Linux x86_64) AppleWebKit/537.36 (KHTML, like Gecko) Chrome/90.0.4430.93 Safari/537.36",WebKit,Chrome,90.0.4430.93,Linux,
41,1,null,null,html-keyboard-response,98,267332,0.0-98.0,IwAR1lKwcBviEdRPpZsd6dBePtLC-fpl5u4k9t8ynITfOeee1nCNrdZxx468o,"<div style=""font-size:60px;"">+</div>","""","""","""","""","""","""","""","""","""","2021-05-05 14:00:29",49.36.243.234,"Mozilla/5.0 (X11; Linux x86_64) AppleWebKit/537.36 (KHTML, like Gecko) Chrome/90.0.4430.93 Safari/537.36",WebKit,Chrome,90.0.4430.93,Linux,
41,1,560.7149999996182,z,html-keyboard-response,99,267906,0.0-99.0,IwAR1lKwcBviEdRPpZsd6dBePtLC-fpl5u4k9t8ynITfOeee1nCNrdZxx468o,"
    <img id = 'img_b1' width = 18% height = 32% style = 'position:absolute;top:10%;left:25%'>
    <img id = 'img_b2' width = 18% height = 32% style = 'position:absolute;top:10%;right:25%'>
    <img id = 'img_b3' width = 18% height = 32% style = 'position:absolute;bottom:10%;left:25%'>
    <img id = 'img_b4' width = 18% height = 32% style = 'position:absolute;bottom:10%;right:25%'>
    <div id = 'cum' style = 'position:absolute;top:5%;right:5%;font-size:calc(18px + 6 * ((100vw - 320px) / 680))'></div>
  ","""","""","""","""","""","""","""","""","""","2021-05-05 14:00:29",49.36.243.234,"Mozilla/5.0 (X11; Linux x86_64) AppleWebKit/537.36 (KHTML, like Gecko) Chrome/90.0.4430.93 Safari/537.36",WebKit,Chrome,90.0.4430.93,Linux,
41,1,null,null,html-keyboard-response,100,269410,0.0-100.0,IwAR1lKwcBviEdRPpZsd6dBePtLC-fpl5u4k9t8ynITfOeee1nCNrdZxx468o,"
    <img id = 'img_b1' width = 18% height = 32% style = 'position:absolute;top:10%;left:25%'>
    <img id = 'img_b2' width = 18% height = 32% style = 'position:absolute;top:10%;right:25%'>
    <img id = 'img_b3' width = 18% height = 32% style = 'position:absolute;bottom:10%;left:25%'>
    <img id = 'img_b4' width = 18% height = 32% style = 'position:absolute;bottom:10%;right:25%'>
    <div id = 'band_txt'></div>
    <div id = 'cum' style = 'position:absolute;top:5%;right:5%;font-size:calc(18px + 6 * ((100vw - 320px) / 680))'></div>
  ","""","""","""","""","""","""","""","""","""","2021-05-05 14:00:29",49.36.243.234,"Mozilla/5.0 (X11; Linux x86_64) AppleWebKit/537.36 (KHTML, like Gecko) Chrome/90.0.4430.93 Safari/537.36",WebKit,Chrome,90.0.4430.93,Linux,
41,1,null,null,html-keyboard-response,101,270163,0.0-101.0,IwAR1lKwcBviEdRPpZsd6dBePtLC-fpl5u4k9t8ynITfOeee1nCNrdZxx468o,"<div style=""font-size:60px;"">+</div>","""","""","""","""","""","""","""","""","""","2021-05-05 14:00:29",49.36.243.234,"Mozilla/5.0 (X11; Linux x86_64) AppleWebKit/537.36 (KHTML, like Gecko) Chrome/90.0.4430.93 Safari/537.36",WebKit,Chrome,90.0.4430.93,Linux,
41,1,472.77000000030966,z,html-keyboard-response,102,270638,0.0-102.0,IwAR1lKwcBviEdRPpZsd6dBePtLC-fpl5u4k9t8ynITfOeee1nCNrdZxx468o,"
    <img id = 'img_b1' width = 18% height = 32% style = 'position:absolute;top:10%;left:25%'>
    <img id = 'img_b2' width = 18% height = 32% style = 'position:absolute;top:10%;right:25%'>
    <img id = 'img_b3' width = 18% height = 32% style = 'position:absolute;bottom:10%;left:25%'>
    <img id = 'img_b4' width = 18% height = 32% style = 'position:absolute;bottom:10%;right:25%'>
    <div id = 'cum' style = 'position:absolute;top:5%;right:5%;font-size:calc(18px + 6 * ((100vw - 320px) / 680))'></div>
  ","""","""","""","""","""","""","""","""","""","2021-05-05 14:00:29",49.36.243.234,"Mozilla/5.0 (X11; Linux x86_64) AppleWebKit/537.36 (KHTML, like Gecko) Chrome/90.0.4430.93 Safari/537.36",WebKit,Chrome,90.0.4430.93,Linux,
41,1,null,null,html-keyboard-response,103,272142,0.0-103.0,IwAR1lKwcBviEdRPpZsd6dBePtLC-fpl5u4k9t8ynITfOeee1nCNrdZxx468o,"
    <img id = 'img_b1' width = 18% height = 32% style = 'position:absolute;top:10%;left:25%'>
    <img id = 'img_b2' width = 18% height = 32% style = 'position:absolute;top:10%;right:25%'>
    <img id = 'img_b3' width = 18% height = 32% style = 'position:absolute;bottom:10%;left:25%'>
    <img id = 'img_b4' width = 18% height = 32% style = 'position:absolute;bottom:10%;right:25%'>
    <div id = 'band_txt'></div>
    <div id = 'cum' style = 'position:absolute;top:5%;right:5%;font-size:calc(18px + 6 * ((100vw - 320px) / 680))'></div>
  ","""","""","""","""","""","""","""","""","""","2021-05-05 14:00:29",49.36.243.234,"Mozilla/5.0 (X11; Linux x86_64) AppleWebKit/537.36 (KHTML, like Gecko) Chrome/90.0.4430.93 Safari/537.36",WebKit,Chrome,90.0.4430.93,Linux,
41,1,null,null,html-keyboard-response,104,273893,0.0-104.0,IwAR1lKwcBviEdRPpZsd6dBePtLC-fpl5u4k9t8ynITfOeee1nCNrdZxx468o,"<div style=""font-size:60px;"">+</div>","""","""","""","""","""","""","""","""","""","2021-05-05 14:00:29",49.36.243.234,"Mozilla/5.0 (X11; Linux x86_64) AppleWebKit/537.36 (KHTML, like Gecko) Chrome/90.0.4430.93 Safari/537.36",WebKit,Chrome,90.0.4430.93,Linux,
41,1,1888.8650000008056,z,html-keyboard-response,105,275798,0.0-105.0,IwAR1lKwcBviEdRPpZsd6dBePtLC-fpl5u4k9t8ynITfOeee1nCNrdZxx468o,"
    <img id = 'img_b1' width = 18% height = 32% style = 'position:absolute;top:10%;left:25%'>
    <img id = 'img_b2' width = 18% height = 32% style = 'position:absolute;top:10%;right:25%'>
    <img id = 'img_b3' width = 18% height = 32% style = 'position:absolute;bottom:10%;left:25%'>
    <img id = 'img_b4' width = 18% height = 32% style = 'position:absolute;bottom:10%;right:25%'>
    <div id = 'cum' style = 'position:absolute;top:5%;right:5%;font-size:calc(18px + 6 * ((100vw - 320px) / 680))'></div>
  ","""","""","""","""","""","""","""","""","""","2021-05-05 14:00:29",49.36.243.234,"Mozilla/5.0 (X11; Linux x86_64) AppleWebKit/537.36 (KHTML, like Gecko) Chrome/90.0.4430.93 Safari/537.36",WebKit,Chrome,90.0.4430.93,Linux,
41,1,null,null,html-keyboard-response,106,277303,0.0-106.0,IwAR1lKwcBviEdRPpZsd6dBePtLC-fpl5u4k9t8ynITfOeee1nCNrdZxx468o,"
    <img id = 'img_b1' width = 18% height = 32% style = 'position:absolute;top:10%;left:25%'>
    <img id = 'img_b2' width = 18% height = 32% style = 'position:absolute;top:10%;right:25%'>
    <img id = 'img_b3' width = 18% height = 32% style = 'position:absolute;bottom:10%;left:25%'>
    <img id = 'img_b4' width = 18% height = 32% style = 'position:absolute;bottom:10%;right:25%'>
    <div id = 'band_txt'></div>
    <div id = 'cum' style = 'position:absolute;top:5%;right:5%;font-size:calc(18px + 6 * ((100vw - 320px) / 680))'></div>
  ","""","""","""","""","""","""","""","""","""","2021-05-05 14:00:29",49.36.243.234,"Mozilla/5.0 (X11; Linux x86_64) AppleWebKit/537.36 (KHTML, like Gecko) Chrome/90.0.4430.93 Safari/537.36",WebKit,Chrome,90.0.4430.93,Linux,
41,1,null,null,html-keyboard-response,107,278055,0.0-107.0,IwAR1lKwcBviEdRPpZsd6dBePtLC-fpl5u4k9t8ynITfOeee1nCNrdZxx468o,"<div style=""font-size:60px;"">+</div>","""","""","""","""","""","""","""","""","""","2021-05-05 14:00:29",49.36.243.234,"Mozilla/5.0 (X11; Linux x86_64) AppleWebKit/537.36 (KHTML, like Gecko) Chrome/90.0.4430.93 Safari/537.36",WebKit,Chrome,90.0.4430.93,Linux,
41,1,1967.515000000305,z,html-keyboard-response,108,280026,0.0-108.0,IwAR1lKwcBviEdRPpZsd6dBePtLC-fpl5u4k9t8ynITfOeee1nCNrdZxx468o,"
    <img id = 'img_b1' width = 18% height = 32% style = 'position:absolute;top:10%;left:25%'>
    <img id = 'img_b2' width = 18% height = 32% style = 'position:absolute;top:10%;right:25%'>
    <img id = 'img_b3' width = 18% height = 32% style = 'position:absolute;bottom:10%;left:25%'>
    <img id = 'img_b4' width = 18% height = 32% style = 'position:absolute;bottom:10%;right:25%'>
    <div id = 'cum' style = 'position:absolute;top:5%;right:5%;font-size:calc(18px + 6 * ((100vw - 320px) / 680))'></div>
  ","""","""","""","""","""","""","""","""","""","2021-05-05 14:00:29",49.36.243.234,"Mozilla/5.0 (X11; Linux x86_64) AppleWebKit/537.36 (KHTML, like Gecko) Chrome/90.0.4430.93 Safari/537.36",WebKit,Chrome,90.0.4430.93,Linux,
41,1,null,null,html-keyboard-response,109,281529,0.0-109.0,IwAR1lKwcBviEdRPpZsd6dBePtLC-fpl5u4k9t8ynITfOeee1nCNrdZxx468o,"
    <img id = 'img_b1' width = 18% height = 32% style = 'position:absolute;top:10%;left:25%'>
    <img id = 'img_b2' width = 18% height = 32% style = 'position:absolute;top:10%;right:25%'>
    <img id = 'img_b3' width = 18% height = 32% style = 'position:absolute;bottom:10%;left:25%'>
    <img id = 'img_b4' width = 18% height = 32% style = 'position:absolute;bottom:10%;right:25%'>
    <div id = 'band_txt'></div>
    <div id = 'cum' style = 'position:absolute;top:5%;right:5%;font-size:calc(18px + 6 * ((100vw - 320px) / 680))'></div>
  ","""","""","""","""","""","""","""","""","""","2021-05-05 14:00:29",49.36.243.234,"Mozilla/5.0 (X11; Linux x86_64) AppleWebKit/537.36 (KHTML, like Gecko) Chrome/90.0.4430.93 Safari/537.36",WebKit,Chrome,90.0.4430.93,Linux,
41,1,null,null,html-keyboard-response,110,283281,0.0-110.0,IwAR1lKwcBviEdRPpZsd6dBePtLC-fpl5u4k9t8ynITfOeee1nCNrdZxx468o,"<div style=""font-size:60px;"">+</div>","""","""","""","""","""","""","""","""","""","2021-05-05 14:00:29",49.36.243.234,"Mozilla/5.0 (X11; Linux x86_64) AppleWebKit/537.36 (KHTML, like Gecko) Chrome/90.0.4430.93 Safari/537.36",WebKit,Chrome,90.0.4430.93,Linux,
41,1,477.13999999908265,z,html-keyboard-response,111,283763,0.0-111.0,IwAR1lKwcBviEdRPpZsd6dBePtLC-fpl5u4k9t8ynITfOeee1nCNrdZxx468o,"
    <img id = 'img_b1' width = 18% height = 32% style = 'position:absolute;top:10%;left:25%'>
    <img id = 'img_b2' width = 18% height = 32% style = 'position:absolute;top:10%;right:25%'>
    <img id = 'img_b3' width = 18% height = 32% style = 'position:absolute;bottom:10%;left:25%'>
    <img id = 'img_b4' width = 18% height = 32% style = 'position:absolute;bottom:10%;right:25%'>
    <div id = 'cum' style = 'position:absolute;top:5%;right:5%;font-size:calc(18px + 6 * ((100vw - 320px) / 680))'></div>
  ","""","""","""","""","""","""","""","""","""","2021-05-05 14:00:29",49.36.243.234,"Mozilla/5.0 (X11; Linux x86_64) AppleWebKit/537.36 (KHTML, like Gecko) Chrome/90.0.4430.93 Safari/537.36",WebKit,Chrome,90.0.4430.93,Linux,
41,1,null,null,html-keyboard-response,112,285280,0.0-112.0,IwAR1lKwcBviEdRPpZsd6dBePtLC-fpl5u4k9t8ynITfOeee1nCNrdZxx468o,"
    <img id = 'img_b1' width = 18% height = 32% style = 'position:absolute;top:10%;left:25%'>
    <img id = 'img_b2' width = 18% height = 32% style = 'position:absolute;top:10%;right:25%'>
    <img id = 'img_b3' width = 18% height = 32% style = 'position:absolute;bottom:10%;left:25%'>
    <img id = 'img_b4' width = 18% height = 32% style = 'position:absolute;bottom:10%;right:25%'>
    <div id = 'band_txt'></div>
    <div id = 'cum' style = 'position:absolute;top:5%;right:5%;font-size:calc(18px + 6 * ((100vw - 320px) / 680))'></div>
  ","""","""","""","""","""","""","""","""","""","2021-05-05 14:00:29",49.36.243.234,"Mozilla/5.0 (X11; Linux x86_64) AppleWebKit/537.36 (KHTML, like Gecko) Chrome/90.0.4430.93 Safari/537.36",WebKit,Chrome,90.0.4430.93,Linux,
41,1,null,null,html-keyboard-response,113,286281,0.0-113.0,IwAR1lKwcBviEdRPpZsd6dBePtLC-fpl5u4k9t8ynITfOeee1nCNrdZxx468o,"<div style=""font-size:60px;"">+</div>","""","""","""","""","""","""","""","""","""","2021-05-05 14:00:29",49.36.243.234,"Mozilla/5.0 (X11; Linux x86_64) AppleWebKit/537.36 (KHTML, like Gecko) Chrome/90.0.4430.93 Safari/537.36",WebKit,Chrome,90.0.4430.93,Linux,
41,1,1618.290000002191,z,html-keyboard-response,114,287903,0.0-114.0,IwAR1lKwcBviEdRPpZsd6dBePtLC-fpl5u4k9t8ynITfOeee1nCNrdZxx468o,"
    <img id = 'img_b1' width = 18% height = 32% style = 'position:absolute;top:10%;left:25%'>
    <img id = 'img_b2' width = 18% height = 32% style = 'position:absolute;top:10%;right:25%'>
    <img id = 'img_b3' width = 18% height = 32% style = 'position:absolute;bottom:10%;left:25%'>
    <img id = 'img_b4' width = 18% height = 32% style = 'position:absolute;bottom:10%;right:25%'>
    <div id = 'cum' style = 'position:absolute;top:5%;right:5%;font-size:calc(18px + 6 * ((100vw - 320px) / 680))'></div>
  ","""","""","""","""","""","""","""","""","""","2021-05-05 14:00:29",49.36.243.234,"Mozilla/5.0 (X11; Linux x86_64) AppleWebKit/537.36 (KHTML, like Gecko) Chrome/90.0.4430.93 Safari/537.36",WebKit,Chrome,90.0.4430.93,Linux,
41,1,null,null,html-keyboard-response,115,289405,0.0-115.0,IwAR1lKwcBviEdRPpZsd6dBePtLC-fpl5u4k9t8ynITfOeee1nCNrdZxx468o,"
    <img id = 'img_b1' width = 18% height = 32% style = 'position:absolute;top:10%;left:25%'>
    <img id = 'img_b2' width = 18% height = 32% style = 'position:absolute;top:10%;right:25%'>
    <img id = 'img_b3' width = 18% height = 32% style = 'position:absolute;bottom:10%;left:25%'>
    <img id = 'img_b4' width = 18% height = 32% style = 'position:absolute;bottom:10%;right:25%'>
    <div id = 'band_txt'></div>
    <div id = 'cum' style = 'position:absolute;top:5%;right:5%;font-size:calc(18px + 6 * ((100vw - 320px) / 680))'></div>
  ","""","""","""","""","""","""","""","""","""","2021-05-05 14:00:29",49.36.243.234,"Mozilla/5.0 (X11; Linux x86_64) AppleWebKit/537.36 (KHTML, like Gecko) Chrome/90.0.4430.93 Safari/537.36",WebKit,Chrome,90.0.4430.93,Linux,
41,1,null,null,html-keyboard-response,116,290157,0.0-116.0,IwAR1lKwcBviEdRPpZsd6dBePtLC-fpl5u4k9t8ynITfOeee1nCNrdZxx468o,"<div style=""font-size:60px;"">+</div>","""","""","""","""","""","""","""","""","""","2021-05-05 14:00:29",49.36.243.234,"Mozilla/5.0 (X11; Linux x86_64) AppleWebKit/537.36 (KHTML, like Gecko) Chrome/90.0.4430.93 Safari/537.36",WebKit,Chrome,90.0.4430.93,Linux,
41,1,1663.3050000019139,z,html-keyboard-response,117,291836,0.0-117.0,IwAR1lKwcBviEdRPpZsd6dBePtLC-fpl5u4k9t8ynITfOeee1nCNrdZxx468o,"
    <img id = 'img_b1' width = 18% height = 32% style = 'position:absolute;top:10%;left:25%'>
    <img id = 'img_b2' width = 18% height = 32% style = 'position:absolute;top:10%;right:25%'>
    <img id = 'img_b3' width = 18% height = 32% style = 'position:absolute;bottom:10%;left:25%'>
    <img id = 'img_b4' width = 18% height = 32% style = 'position:absolute;bottom:10%;right:25%'>
    <div id = 'cum' style = 'position:absolute;top:5%;right:5%;font-size:calc(18px + 6 * ((100vw - 320px) / 680))'></div>
  ","""","""","""","""","""","""","""","""","""","2021-05-05 14:00:29",49.36.243.234,"Mozilla/5.0 (X11; Linux x86_64) AppleWebKit/537.36 (KHTML, like Gecko) Chrome/90.0.4430.93 Safari/537.36",WebKit,Chrome,90.0.4430.93,Linux,
41,1,null,null,html-keyboard-response,118,293340,0.0-118.0,IwAR1lKwcBviEdRPpZsd6dBePtLC-fpl5u4k9t8ynITfOeee1nCNrdZxx468o,"
    <img id = 'img_b1' width = 18% height = 32% style = 'position:absolute;top:10%;left:25%'>
    <img id = 'img_b2' width = 18% height = 32% style = 'position:absolute;top:10%;right:25%'>
    <img id = 'img_b3' width = 18% height = 32% style = 'position:absolute;bottom:10%;left:25%'>
    <img id = 'img_b4' width = 18% height = 32% style = 'position:absolute;bottom:10%;right:25%'>
    <div id = 'band_txt'></div>
    <div id = 'cum' style = 'position:absolute;top:5%;right:5%;font-size:calc(18px + 6 * ((100vw - 320px) / 680))'></div>
  ","""","""","""","""","""","""","""","""","""","2021-05-05 14:00:29",49.36.243.234,"Mozilla/5.0 (X11; Linux x86_64) AppleWebKit/537.36 (KHTML, like Gecko) Chrome/90.0.4430.93 Safari/537.36",WebKit,Chrome,90.0.4430.93,Linux,
41,1,null,null,html-keyboard-response,119,295092,0.0-119.0,IwAR1lKwcBviEdRPpZsd6dBePtLC-fpl5u4k9t8ynITfOeee1nCNrdZxx468o,"<div style=""font-size:60px;"">+</div>","""","""","""","""","""","""","""","""","""","2021-05-05 14:00:29",49.36.243.234,"Mozilla/5.0 (X11; Linux x86_64) AppleWebKit/537.36 (KHTML, like Gecko) Chrome/90.0.4430.93 Safari/537.36",WebKit,Chrome,90.0.4430.93,Linux,
41,1,3050.219999997411,z,html-keyboard-response,120,298145,0.0-120.0,IwAR1lKwcBviEdRPpZsd6dBePtLC-fpl5u4k9t8ynITfOeee1nCNrdZxx468o,"
    <img id = 'img_b1' width = 18% height = 32% style = 'position:absolute;top:10%;left:25%'>
    <img id = 'img_b2' width = 18% height = 32% style = 'position:absolute;top:10%;right:25%'>
    <img id = 'img_b3' width = 18% height = 32% style = 'position:absolute;bottom:10%;left:25%'>
    <img id = 'img_b4' width = 18% height = 32% style = 'position:absolute;bottom:10%;right:25%'>
    <div id = 'cum' style = 'position:absolute;top:5%;right:5%;font-size:calc(18px + 6 * ((100vw - 320px) / 680))'></div>
  ","""","""","""","""","""","""","""","""","""","2021-05-05 14:00:29",49.36.243.234,"Mozilla/5.0 (X11; Linux x86_64) AppleWebKit/537.36 (KHTML, like Gecko) Chrome/90.0.4430.93 Safari/537.36",WebKit,Chrome,90.0.4430.93,Linux,
41,1,null,null,html-keyboard-response,121,299666,0.0-121.0,IwAR1lKwcBviEdRPpZsd6dBePtLC-fpl5u4k9t8ynITfOeee1nCNrdZxx468o,"
    <img id = 'img_b1' width = 18% height = 32% style = 'position:absolute;top:10%;left:25%'>
    <img id = 'img_b2' width = 18% height = 32% style = 'position:absolute;top:10%;right:25%'>
    <img id = 'img_b3' width = 18% height = 32% style = 'position:absolute;bottom:10%;left:25%'>
    <img id = 'img_b4' width = 18% height = 32% style = 'position:absolute;bottom:10%;right:25%'>
    <div id = 'band_txt'></div>
    <div id = 'cum' style = 'position:absolute;top:5%;right:5%;font-size:calc(18px + 6 * ((100vw - 320px) / 680))'></div>
  ","""","""","""","""","""","""","""","""","""","2021-05-05 14:00:29",49.36.243.234,"Mozilla/5.0 (X11; Linux x86_64) AppleWebKit/537.36 (KHTML, like Gecko) Chrome/90.0.4430.93 Safari/537.36",WebKit,Chrome,90.0.4430.93,Linux,
41,1,null,null,html-keyboard-response,122,300418,0.0-122.0,IwAR1lKwcBviEdRPpZsd6dBePtLC-fpl5u4k9t8ynITfOeee1nCNrdZxx468o,"<div style=""font-size:60px;"">+</div>","""","""","""","""","""","""","""","""","""","2021-05-05 14:00:29",49.36.243.234,"Mozilla/5.0 (X11; Linux x86_64) AppleWebKit/537.36 (KHTML, like Gecko) Chrome/90.0.4430.93 Safari/537.36",WebKit,Chrome,90.0.4430.93,Linux,
41,1,1956.930000000284,z,html-keyboard-response,123,302378,0.0-123.0,IwAR1lKwcBviEdRPpZsd6dBePtLC-fpl5u4k9t8ynITfOeee1nCNrdZxx468o,"
    <img id = 'img_b1' width = 18% height = 32% style = 'position:absolute;top:10%;left:25%'>
    <img id = 'img_b2' width = 18% height = 32% style = 'position:absolute;top:10%;right:25%'>
    <img id = 'img_b3' width = 18% height = 32% style = 'position:absolute;bottom:10%;left:25%'>
    <img id = 'img_b4' width = 18% height = 32% style = 'position:absolute;bottom:10%;right:25%'>
    <div id = 'cum' style = 'position:absolute;top:5%;right:5%;font-size:calc(18px + 6 * ((100vw - 320px) / 680))'></div>
  ","""","""","""","""","""","""","""","""","""","2021-05-05 14:00:29",49.36.243.234,"Mozilla/5.0 (X11; Linux x86_64) AppleWebKit/537.36 (KHTML, like Gecko) Chrome/90.0.4430.93 Safari/537.36",WebKit,Chrome,90.0.4430.93,Linux,
41,1,null,null,html-keyboard-response,124,303882,0.0-124.0,IwAR1lKwcBviEdRPpZsd6dBePtLC-fpl5u4k9t8ynITfOeee1nCNrdZxx468o,"
    <img id = 'img_b1' width = 18% height = 32% style = 'position:absolute;top:10%;left:25%'>
    <img id = 'img_b2' width = 18% height = 32% style = 'position:absolute;top:10%;right:25%'>
    <img id = 'img_b3' width = 18% height = 32% style = 'position:absolute;bottom:10%;left:25%'>
    <img id = 'img_b4' width = 18% height = 32% style = 'position:absolute;bottom:10%;right:25%'>
    <div id = 'band_txt'></div>
    <div id = 'cum' style = 'position:absolute;top:5%;right:5%;font-size:calc(18px + 6 * ((100vw - 320px) / 680))'></div>
  ","""","""","""","""","""","""","""","""","""","2021-05-05 14:00:29",49.36.243.234,"Mozilla/5.0 (X11; Linux x86_64) AppleWebKit/537.36 (KHTML, like Gecko) Chrome/90.0.4430.93 Safari/537.36",WebKit,Chrome,90.0.4430.93,Linux,
41,1,null,null,html-keyboard-response,125,305384,0.0-125.0,IwAR1lKwcBviEdRPpZsd6dBePtLC-fpl5u4k9t8ynITfOeee1nCNrdZxx468o,"<div style=""font-size:60px;"">+</div>","""","""","""","""","""","""","""","""","""","2021-05-05 14:00:29",49.36.243.234,"Mozilla/5.0 (X11; Linux x86_64) AppleWebKit/537.36 (KHTML, like Gecko) Chrome/90.0.4430.93 Safari/537.36",WebKit,Chrome,90.0.4430.93,Linux,
41,1,625.6849999990663,z,html-keyboard-response,126,306018,0.0-126.0,IwAR1lKwcBviEdRPpZsd6dBePtLC-fpl5u4k9t8ynITfOeee1nCNrdZxx468o,"
    <img id = 'img_b1' width = 18% height = 32% style = 'position:absolute;top:10%;left:25%'>
    <img id = 'img_b2' width = 18% height = 32% style = 'position:absolute;top:10%;right:25%'>
    <img id = 'img_b3' width = 18% height = 32% style = 'position:absolute;bottom:10%;left:25%'>
    <img id = 'img_b4' width = 18% height = 32% style = 'position:absolute;bottom:10%;right:25%'>
    <div id = 'cum' style = 'position:absolute;top:5%;right:5%;font-size:calc(18px + 6 * ((100vw - 320px) / 680))'></div>
  ","""","""","""","""","""","""","""","""","""","2021-05-05 14:00:29",49.36.243.234,"Mozilla/5.0 (X11; Linux x86_64) AppleWebKit/537.36 (KHTML, like Gecko) Chrome/90.0.4430.93 Safari/537.36",WebKit,Chrome,90.0.4430.93,Linux,
41,1,null,null,html-keyboard-response,127,307521,0.0-127.0,IwAR1lKwcBviEdRPpZsd6dBePtLC-fpl5u4k9t8ynITfOeee1nCNrdZxx468o,"
    <img id = 'img_b1' width = 18% height = 32% style = 'position:absolute;top:10%;left:25%'>
    <img id = 'img_b2' width = 18% height = 32% style = 'position:absolute;top:10%;right:25%'>
    <img id = 'img_b3' width = 18% height = 32% style = 'position:absolute;bottom:10%;left:25%'>
    <img id = 'img_b4' width = 18% height = 32% style = 'position:absolute;bottom:10%;right:25%'>
    <div id = 'band_txt'></div>
    <div id = 'cum' style = 'position:absolute;top:5%;right:5%;font-size:calc(18px + 6 * ((100vw - 320px) / 680))'></div>
  ","""","""","""","""","""","""","""","""","""","2021-05-05 14:00:29",49.36.243.234,"Mozilla/5.0 (X11; Linux x86_64) AppleWebKit/537.36 (KHTML, like Gecko) Chrome/90.0.4430.93 Safari/537.36",WebKit,Chrome,90.0.4430.93,Linux,
41,1,null,null,html-keyboard-response,128,308274,0.0-128.0,IwAR1lKwcBviEdRPpZsd6dBePtLC-fpl5u4k9t8ynITfOeee1nCNrdZxx468o,"<div style=""font-size:60px;"">+</div>","""","""","""","""","""","""","""","""","""","2021-05-05 14:00:29",49.36.243.234,"Mozilla/5.0 (X11; Linux x86_64) AppleWebKit/537.36 (KHTML, like Gecko) Chrome/90.0.4430.93 Safari/537.36",WebKit,Chrome,90.0.4430.93,Linux,
41,1,3242.2550000010524,z,html-keyboard-response,129,311519,0.0-129.0,IwAR1lKwcBviEdRPpZsd6dBePtLC-fpl5u4k9t8ynITfOeee1nCNrdZxx468o,"
    <img id = 'img_b1' width = 18% height = 32% style = 'position:absolute;top:10%;left:25%'>
    <img id = 'img_b2' width = 18% height = 32% style = 'position:absolute;top:10%;right:25%'>
    <img id = 'img_b3' width = 18% height = 32% style = 'position:absolute;bottom:10%;left:25%'>
    <img id = 'img_b4' width = 18% height = 32% style = 'position:absolute;bottom:10%;right:25%'>
    <div id = 'cum' style = 'position:absolute;top:5%;right:5%;font-size:calc(18px + 6 * ((100vw - 320px) / 680))'></div>
  ","""","""","""","""","""","""","""","""","""","2021-05-05 14:00:29",49.36.243.234,"Mozilla/5.0 (X11; Linux x86_64) AppleWebKit/537.36 (KHTML, like Gecko) Chrome/90.0.4430.93 Safari/537.36",WebKit,Chrome,90.0.4430.93,Linux,
41,1,null,null,html-keyboard-response,130,313025,0.0-130.0,IwAR1lKwcBviEdRPpZsd6dBePtLC-fpl5u4k9t8ynITfOeee1nCNrdZxx468o,"
    <img id = 'img_b1' width = 18% height = 32% style = 'position:absolute;top:10%;left:25%'>
    <img id = 'img_b2' width = 18% height = 32% style = 'position:absolute;top:10%;right:25%'>
    <img id = 'img_b3' width = 18% height = 32% style = 'position:absolute;bottom:10%;left:25%'>
    <img id = 'img_b4' width = 18% height = 32% style = 'position:absolute;bottom:10%;right:25%'>
    <div id = 'band_txt'></div>
    <div id = 'cum' style = 'position:absolute;top:5%;right:5%;font-size:calc(18px + 6 * ((100vw - 320px) / 680))'></div>
  ","""","""","""","""","""","""","""","""","""","2021-05-05 14:00:29",49.36.243.234,"Mozilla/5.0 (X11; Linux x86_64) AppleWebKit/537.36 (KHTML, like Gecko) Chrome/90.0.4430.93 Safari/537.36",WebKit,Chrome,90.0.4430.93,Linux,
41,1,null,null,html-keyboard-response,131,314277,0.0-131.0,IwAR1lKwcBviEdRPpZsd6dBePtLC-fpl5u4k9t8ynITfOeee1nCNrdZxx468o,"<div style=""font-size:60px;"">+</div>","""","""","""","""","""","""","""","""","""","2021-05-05 14:00:29",49.36.243.234,"Mozilla/5.0 (X11; Linux x86_64) AppleWebKit/537.36 (KHTML, like Gecko) Chrome/90.0.4430.93 Safari/537.36",WebKit,Chrome,90.0.4430.93,Linux,
41,1,529.9400000004098,z,html-keyboard-response,132,314810,0.0-132.0,IwAR1lKwcBviEdRPpZsd6dBePtLC-fpl5u4k9t8ynITfOeee1nCNrdZxx468o,"
    <img id = 'img_b1' width = 18% height = 32% style = 'position:absolute;top:10%;left:25%'>
    <img id = 'img_b2' width = 18% height = 32% style = 'position:absolute;top:10%;right:25%'>
    <img id = 'img_b3' width = 18% height = 32% style = 'position:absolute;bottom:10%;left:25%'>
    <img id = 'img_b4' width = 18% height = 32% style = 'position:absolute;bottom:10%;right:25%'>
    <div id = 'cum' style = 'position:absolute;top:5%;right:5%;font-size:calc(18px + 6 * ((100vw - 320px) / 680))'></div>
  ","""","""","""","""","""","""","""","""","""","2021-05-05 14:00:29",49.36.243.234,"Mozilla/5.0 (X11; Linux x86_64) AppleWebKit/537.36 (KHTML, like Gecko) Chrome/90.0.4430.93 Safari/537.36",WebKit,Chrome,90.0.4430.93,Linux,
41,1,null,null,html-keyboard-response,133,316316,0.0-133.0,IwAR1lKwcBviEdRPpZsd6dBePtLC-fpl5u4k9t8ynITfOeee1nCNrdZxx468o,"
    <img id = 'img_b1' width = 18% height = 32% style = 'position:absolute;top:10%;left:25%'>
    <img id = 'img_b2' width = 18% height = 32% style = 'position:absolute;top:10%;right:25%'>
    <img id = 'img_b3' width = 18% height = 32% style = 'position:absolute;bottom:10%;left:25%'>
    <img id = 'img_b4' width = 18% height = 32% style = 'position:absolute;bottom:10%;right:25%'>
    <div id = 'band_txt'></div>
    <div id = 'cum' style = 'position:absolute;top:5%;right:5%;font-size:calc(18px + 6 * ((100vw - 320px) / 680))'></div>
  ","""","""","""","""","""","""","""","""","""","2021-05-05 14:00:29",49.36.243.234,"Mozilla/5.0 (X11; Linux x86_64) AppleWebKit/537.36 (KHTML, like Gecko) Chrome/90.0.4430.93 Safari/537.36",WebKit,Chrome,90.0.4430.93,Linux,
41,1,null,null,html-keyboard-response,134,317319,0.0-134.0,IwAR1lKwcBviEdRPpZsd6dBePtLC-fpl5u4k9t8ynITfOeee1nCNrdZxx468o,"<div style=""font-size:60px;"">+</div>","""","""","""","""","""","""","""","""","""","2021-05-05 14:00:29",49.36.243.234,"Mozilla/5.0 (X11; Linux x86_64) AppleWebKit/537.36 (KHTML, like Gecko) Chrome/90.0.4430.93 Safari/537.36",WebKit,Chrome,90.0.4430.93,Linux,
41,1,2619.5799999986775,z,html-keyboard-response,135,319941,0.0-135.0,IwAR1lKwcBviEdRPpZsd6dBePtLC-fpl5u4k9t8ynITfOeee1nCNrdZxx468o,"
    <img id = 'img_b1' width = 18% height = 32% style = 'position:absolute;top:10%;left:25%'>
    <img id = 'img_b2' width = 18% height = 32% style = 'position:absolute;top:10%;right:25%'>
    <img id = 'img_b3' width = 18% height = 32% style = 'position:absolute;bottom:10%;left:25%'>
    <img id = 'img_b4' width = 18% height = 32% style = 'position:absolute;bottom:10%;right:25%'>
    <div id = 'cum' style = 'position:absolute;top:5%;right:5%;font-size:calc(18px + 6 * ((100vw - 320px) / 680))'></div>
  ","""","""","""","""","""","""","""","""","""","2021-05-05 14:00:29",49.36.243.234,"Mozilla/5.0 (X11; Linux x86_64) AppleWebKit/537.36 (KHTML, like Gecko) Chrome/90.0.4430.93 Safari/537.36",WebKit,Chrome,90.0.4430.93,Linux,
41,1,null,null,html-keyboard-response,136,321448,0.0-136.0,IwAR1lKwcBviEdRPpZsd6dBePtLC-fpl5u4k9t8ynITfOeee1nCNrdZxx468o,"
    <img id = 'img_b1' width = 18% height = 32% style = 'position:absolute;top:10%;left:25%'>
    <img id = 'img_b2' width = 18% height = 32% style = 'position:absolute;top:10%;right:25%'>
    <img id = 'img_b3' width = 18% height = 32% style = 'position:absolute;bottom:10%;left:25%'>
    <img id = 'img_b4' width = 18% height = 32% style = 'position:absolute;bottom:10%;right:25%'>
    <div id = 'band_txt'></div>
    <div id = 'cum' style = 'position:absolute;top:5%;right:5%;font-size:calc(18px + 6 * ((100vw - 320px) / 680))'></div>
  ","""","""","""","""","""","""","""","""","""","2021-05-05 14:00:29",49.36.243.234,"Mozilla/5.0 (X11; Linux x86_64) AppleWebKit/537.36 (KHTML, like Gecko) Chrome/90.0.4430.93 Safari/537.36",WebKit,Chrome,90.0.4430.93,Linux,
41,1,null,null,html-keyboard-response,137,322950,0.0-137.0,IwAR1lKwcBviEdRPpZsd6dBePtLC-fpl5u4k9t8ynITfOeee1nCNrdZxx468o,"<div style=""font-size:60px;"">+</div>","""","""","""","""","""","""","""","""","""","2021-05-05 14:00:29",49.36.243.234,"Mozilla/5.0 (X11; Linux x86_64) AppleWebKit/537.36 (KHTML, like Gecko) Chrome/90.0.4430.93 Safari/537.36",WebKit,Chrome,90.0.4430.93,Linux,
41,1,5605.575000001467,z,html-keyboard-response,138,328559,0.0-138.0,IwAR1lKwcBviEdRPpZsd6dBePtLC-fpl5u4k9t8ynITfOeee1nCNrdZxx468o,"
    <img id = 'img_b1' width = 18% height = 32% style = 'position:absolute;top:10%;left:25%'>
    <img id = 'img_b2' width = 18% height = 32% style = 'position:absolute;top:10%;right:25%'>
    <img id = 'img_b3' width = 18% height = 32% style = 'position:absolute;bottom:10%;left:25%'>
    <img id = 'img_b4' width = 18% height = 32% style = 'position:absolute;bottom:10%;right:25%'>
    <div id = 'cum' style = 'position:absolute;top:5%;right:5%;font-size:calc(18px + 6 * ((100vw - 320px) / 680))'></div>
  ","""","""","""","""","""","""","""","""","""","2021-05-05 14:00:29",49.36.243.234,"Mozilla/5.0 (X11; Linux x86_64) AppleWebKit/537.36 (KHTML, like Gecko) Chrome/90.0.4430.93 Safari/537.36",WebKit,Chrome,90.0.4430.93,Linux,
41,1,null,null,html-keyboard-response,139,330067,0.0-139.0,IwAR1lKwcBviEdRPpZsd6dBePtLC-fpl5u4k9t8ynITfOeee1nCNrdZxx468o,"
    <img id = 'img_b1' width = 18% height = 32% style = 'position:absolute;top:10%;left:25%'>
    <img id = 'img_b2' width = 18% height = 32% style = 'position:absolute;top:10%;right:25%'>
    <img id = 'img_b3' width = 18% height = 32% style = 'position:absolute;bottom:10%;left:25%'>
    <img id = 'img_b4' width = 18% height = 32% style = 'position:absolute;bottom:10%;right:25%'>
    <div id = 'band_txt'></div>
    <div id = 'cum' style = 'position:absolute;top:5%;right:5%;font-size:calc(18px + 6 * ((100vw - 320px) / 680))'></div>
