run_id,condition,rt,response,trial_type,trial_index,time_elapsed,internal_node_id,fbclid,stimulus,trend,stable,num,resp_map,success,timeout,failed_images,failed_audio,failed_video,recorded_at,ip,user_agent,device,browser,browser_version,platform,platform_version
51,1,9452.339999988908,"{""age"":""21"",""sex"":""male"",""hand"":""right""}",survey-text,0,9567,0.0-0.0,IwAR0w03RrWao-7ISp3JzTqxclxvjgG7cVdB2nxuBwn_64fmYv3nnsaP-cZqs,"""","""","""","""","""","""","""","""","""","""","2021-05-05 14:16:49",106.205.212.158,"Mozilla/5.0 (Macintosh; Intel Mac OS X 10_15_1) AppleWebKit/537.36 (KHTML, like Gecko) Chrome/90.0.4430.93 Safari/537.36",Macintosh,Chrome,90.0.4430.93,"OS X",10_15_1
51,1,1621.9750000018394,a,html-keyboard-response,1,11198,0.0-1.0,IwAR0w03RrWao-7ISp3JzTqxclxvjgG7cVdB2nxuBwn_64fmYv3nnsaP-cZqs,"Hi! Thanks for volunteering for this study. It is part of the project component for the course, CS786A - Computational Cognitive Science, at IIT Kanpur.<br> You will now play a decision-making game lasting for 15-20 minutes. In case of any queries, please write to prathams@iitk.ac.in or call at 9760066853.<br><br>Press any key to continue!",1,1,1,"[2,0,1,3]","""","""","""","""","""","2021-05-05 14:16:49",106.205.212.158,"Mozilla/5.0 (Macintosh; Intel Mac OS X 10_15_1) AppleWebKit/537.36 (KHTML, like Gecko) Chrome/90.0.4430.93 Safari/537.36",Macintosh,Chrome,90.0.4430.93,"OS X",10_15_1
51,1,29665.435000002617,q,html-keyboard-response,2,40867,0.0-2.0,IwAR0w03RrWao-7ISp3JzTqxclxvjgG7cVdB2nxuBwn_64fmYv3nnsaP-cZqs,"Imagine you are in a casino, and you go to a room with four slot machines. On pulling a machine, it yeilds a reward. At any point, some machines may be better than the others, but the amount they give varies. Your aim is to maximize your cumulative reward by the end of this experiment. <br>Machines are pulled by pressing 'Q', 'P', 'M' or 'Z' on the keyboard. These keys are arranged in the same way on the keyboard as the slot machines are on the screen.<br>Press any button to see an illustration of the trial screen and the keyboard mapping!","""","""","""","""","""","""","""","""","""","2021-05-05 14:16:49",106.205.212.158,"Mozilla/5.0 (Macintosh; Intel Mac OS X 10_15_1) AppleWebKit/537.36 (KHTML, like Gecko) Chrome/90.0.4430.93 Safari/537.36",Macintosh,Chrome,90.0.4430.93,"OS X",10_15_1
51,1,"""","""",preload,3,44791,0.0-3.0,IwAR0w03RrWao-7ISp3JzTqxclxvjgG7cVdB2nxuBwn_64fmYv3nnsaP-cZqs,"""","""","""","""","""",true,false,[],[],[],"2021-05-05 14:16:49",106.205.212.158,"Mozilla/5.0 (Macintosh; Intel Mac OS X 10_15_1) AppleWebKit/537.36 (KHTML, like Gecko) Chrome/90.0.4430.93 Safari/537.36",Macintosh,Chrome,90.0.4430.93,"OS X",10_15_1
51,1,2438.11000000278,q,html-keyboard-response,4,47231,0.0-4.0,IwAR0w03RrWao-7ISp3JzTqxclxvjgG7cVdB2nxuBwn_64fmYv3nnsaP-cZqs,"
    <img src = 'img/b1.png' width = 18% height = 32% style = 'position:absolute;top:10%;left:25%'>
    <img src = 'img/b2.png' width = 18% height = 32% style = 'position:absolute;top:10%;right:25%'>
    <img src = 'img/b3.png' width = 18% height = 32% style = 'position:absolute;bottom:10%;left:25%'>
    <img src = 'img/b4.png' width = 18% height = 32% style = 'position:absolute;bottom:10%;right:25%'>
    <div id = 'cum' style = 'position:absolute;top:5%;right:5%;font-size:calc(18px + 6 * ((100vw - 320px) / 680))'>Total</div>
    <div style = 'position:absolute;top:20%;left:30%;color:black;font-size:calc(18px + 6 * ((100vw - 320px) / 680))'>Q</div>
    <div style = 'position:absolute;top:20%;right:35%;color:black;font-size:calc(18px + 6 * ((100vw - 320px) / 680))'>P</div>
    <div style = 'position:absolute;bottom:26%;right:35%;color:black;font-size:calc(18px + 6 * ((100vw - 320px) / 680))'>M</div>
    <div style = 'position:absolute;bottom:26%;left:30%;color:black;font-size:calc(18px + 6 * ((100vw - 320px) / 680))'>Z</div>
    <div style = 'position:absolute;bottom:5%;left:30%'>Press any button to proceed to the experiment!</div>
  ","""","""","""","""","""","""","""","""","""","2021-05-05 14:16:49",106.205.212.158,"Mozilla/5.0 (Macintosh; Intel Mac OS X 10_15_1) AppleWebKit/537.36 (KHTML, like Gecko) Chrome/90.0.4430.93 Safari/537.36",Macintosh,Chrome,90.0.4430.93,"OS X",10_15_1
51,1,null,null,html-keyboard-response,5,48743,0.0-5.0,IwAR0w03RrWao-7ISp3JzTqxclxvjgG7cVdB2nxuBwn_64fmYv3nnsaP-cZqs,"<div style=""font-size:60px;"">+</div>","""","""","""","""","""","""","""","""","""","2021-05-05 14:16:49",106.205.212.158,"Mozilla/5.0 (Macintosh; Intel Mac OS X 10_15_1) AppleWebKit/537.36 (KHTML, like Gecko) Chrome/90.0.4430.93 Safari/537.36",Macintosh,Chrome,90.0.4430.93,"OS X",10_15_1
51,1,2937.6350000093225,p,html-keyboard-response,6,51684,0.0-6.0,IwAR0w03RrWao-7ISp3JzTqxclxvjgG7cVdB2nxuBwn_64fmYv3nnsaP-cZqs,"
    <img id = 'img_b1' width = 18% height = 32% style = 'position:absolute;top:10%;left:25%'>
    <img id = 'img_b2' width = 18% height = 32% style = 'position:absolute;top:10%;right:25%'>
    <img id = 'img_b3' width = 18% height = 32% style = 'position:absolute;bottom:10%;left:25%'>
    <img id = 'img_b4' width = 18% height = 32% style = 'position:absolute;bottom:10%;right:25%'>
    <div id = 'cum' style = 'position:absolute;top:5%;right:5%;font-size:calc(18px + 6 * ((100vw - 320px) / 680))'></div>
  ","""","""","""","""","""","""","""","""","""","2021-05-05 14:16:49",106.205.212.158,"Mozilla/5.0 (Macintosh; Intel Mac OS X 10_15_1) AppleWebKit/537.36 (KHTML, like Gecko) Chrome/90.0.4430.93 Safari/537.36",Macintosh,Chrome,90.0.4430.93,"OS X",10_15_1
51,1,null,null,html-keyboard-response,7,53188,0.0-7.0,IwAR0w03RrWao-7ISp3JzTqxclxvjgG7cVdB2nxuBwn_64fmYv3nnsaP-cZqs,"
    <img id = 'img_b1' width = 18% height = 32% style = 'position:absolute;top:10%;left:25%'>
    <img id = 'img_b2' width = 18% height = 32% style = 'position:absolute;top:10%;right:25%'>
    <img id = 'img_b3' width = 18% height = 32% style = 'position:absolute;bottom:10%;left:25%'>
    <img id = 'img_b4' width = 18% height = 32% style = 'position:absolute;bottom:10%;right:25%'>
    <div id = 'band_txt'></div>
    <div id = 'cum' style = 'position:absolute;top:5%;right:5%;font-size:calc(18px + 6 * ((100vw - 320px) / 680))'></div>
  ","""","""","""","""","""","""","""","""","""","2021-05-05 14:16:49",106.205.212.158,"Mozilla/5.0 (Macintosh; Intel Mac OS X 10_15_1) AppleWebKit/537.36 (KHTML, like Gecko) Chrome/90.0.4430.93 Safari/537.36",Macintosh,Chrome,90.0.4430.93,"OS X",10_15_1
51,1,null,null,html-keyboard-response,8,54192,0.0-8.0,IwAR0w03RrWao-7ISp3JzTqxclxvjgG7cVdB2nxuBwn_64fmYv3nnsaP-cZqs,"<div style=""font-size:60px;"">+</div>","""","""","""","""","""","""","""","""","""","2021-05-05 14:16:49",106.205.212.158,"Mozilla/5.0 (Macintosh; Intel Mac OS X 10_15_1) AppleWebKit/537.36 (KHTML, like Gecko) Chrome/90.0.4430.93 Safari/537.36",Macintosh,Chrome,90.0.4430.93,"OS X",10_15_1
51,1,336.00499999010935,q,html-keyboard-response,9,54532,0.0-9.0,IwAR0w03RrWao-7ISp3JzTqxclxvjgG7cVdB2nxuBwn_64fmYv3nnsaP-cZqs,"
    <img id = 'img_b1' width = 18% height = 32% style = 'position:absolute;top:10%;left:25%'>
    <img id = 'img_b2' width = 18% height = 32% style = 'position:absolute;top:10%;right:25%'>
    <img id = 'img_b3' width = 18% height = 32% style = 'position:absolute;bottom:10%;left:25%'>
    <img id = 'img_b4' width = 18% height = 32% style = 'position:absolute;bottom:10%;right:25%'>
    <div id = 'cum' style = 'position:absolute;top:5%;right:5%;font-size:calc(18px + 6 * ((100vw - 320px) / 680))'></div>
  ","""","""","""","""","""","""","""","""","""","2021-05-05 14:16:49",106.205.212.158,"Mozilla/5.0 (Macintosh; Intel Mac OS X 10_15_1) AppleWebKit/537.36 (KHTML, like Gecko) Chrome/90.0.4430.93 Safari/537.36",Macintosh,Chrome,90.0.4430.93,"OS X",10_15_1
51,1,null,null,html-keyboard-response,10,56038,0.0-10.0,IwAR0w03RrWao-7ISp3JzTqxclxvjgG7cVdB2nxuBwn_64fmYv3nnsaP-cZqs,"
    <img id = 'img_b1' width = 18% height = 32% style = 'position:absolute;top:10%;left:25%'>
    <img id = 'img_b2' width = 18% height = 32% style = 'position:absolute;top:10%;right:25%'>
    <img id = 'img_b3' width = 18% height = 32% style = 'position:absolute;bottom:10%;left:25%'>
    <img id = 'img_b4' width = 18% height = 32% style = 'position:absolute;bottom:10%;right:25%'>
    <div id = 'band_txt'></div>
    <div id = 'cum' style = 'position:absolute;top:5%;right:5%;font-size:calc(18px + 6 * ((100vw - 320px) / 680))'></div>
  ","""","""","""","""","""","""","""","""","""","2021-05-05 14:16:49",106.205.212.158,"Mozilla/5.0 (Macintosh; Intel Mac OS X 10_15_1) AppleWebKit/537.36 (KHTML, like Gecko) Chrome/90.0.4430.93 Safari/537.36",Macintosh,Chrome,90.0.4430.93,"OS X",10_15_1
51,1,null,null,html-keyboard-response,11,57541,0.0-11.0,IwAR0w03RrWao-7ISp3JzTqxclxvjgG7cVdB2nxuBwn_64fmYv3nnsaP-cZqs,"<div style=""font-size:60px;"">+</div>","""","""","""","""","""","""","""","""","""","2021-05-05 14:16:49",106.205.212.158,"Mozilla/5.0 (Macintosh; Intel Mac OS X 10_15_1) AppleWebKit/537.36 (KHTML, like Gecko) Chrome/90.0.4430.93 Safari/537.36",Macintosh,Chrome,90.0.4430.93,"OS X",10_15_1
51,1,260.37499999802094,q,html-keyboard-response,12,57803,0.0-12.0,IwAR0w03RrWao-7ISp3JzTqxclxvjgG7cVdB2nxuBwn_64fmYv3nnsaP-cZqs,"
    <img id = 'img_b1' width = 18% height = 32% style = 'position:absolute;top:10%;left:25%'>
    <img id = 'img_b2' width = 18% height = 32% style = 'position:absolute;top:10%;right:25%'>
    <img id = 'img_b3' width = 18% height = 32% style = 'position:absolute;bottom:10%;left:25%'>
    <img id = 'img_b4' width = 18% height = 32% style = 'position:absolute;bottom:10%;right:25%'>
    <div id = 'cum' style = 'position:absolute;top:5%;right:5%;font-size:calc(18px + 6 * ((100vw - 320px) / 680))'></div>
  ","""","""","""","""","""","""","""","""","""","2021-05-05 14:16:49",106.205.212.158,"Mozilla/5.0 (Macintosh; Intel Mac OS X 10_15_1) AppleWebKit/537.36 (KHTML, like Gecko) Chrome/90.0.4430.93 Safari/537.36",Macintosh,Chrome,90.0.4430.93,"OS X",10_15_1
51,1,null,null,html-keyboard-response,13,59307,0.0-13.0,IwAR0w03RrWao-7ISp3JzTqxclxvjgG7cVdB2nxuBwn_64fmYv3nnsaP-cZqs,"
    <img id = 'img_b1' width = 18% height = 32% style = 'position:absolute;top:10%;left:25%'>
    <img id = 'img_b2' width = 18% height = 32% style = 'position:absolute;top:10%;right:25%'>
    <img id = 'img_b3' width = 18% height = 32% style = 'position:absolute;bottom:10%;left:25%'>
    <img id = 'img_b4' width = 18% height = 32% style = 'position:absolute;bottom:10%;right:25%'>
    <div id = 'band_txt'></div>
    <div id = 'cum' style = 'position:absolute;top:5%;right:5%;font-size:calc(18px + 6 * ((100vw - 320px) / 680))'></div>
  ","""","""","""","""","""","""","""","""","""","2021-05-05 14:16:49",106.205.212.158,"Mozilla/5.0 (Macintosh; Intel Mac OS X 10_15_1) AppleWebKit/537.36 (KHTML, like Gecko) Chrome/90.0.4430.93 Safari/537.36",Macintosh,Chrome,90.0.4430.93,"OS X",10_15_1
51,1,null,null,html-keyboard-response,14,60559,0.0-14.0,IwAR0w03RrWao-7ISp3JzTqxclxvjgG7cVdB2nxuBwn_64fmYv3nnsaP-cZqs,"<div style=""font-size:60px;"">+</div>","""","""","""","""","""","""","""","""","""","2021-05-05 14:16:49",106.205.212.158,"Mozilla/5.0 (Macintosh; Intel Mac OS X 10_15_1) AppleWebKit/537.36 (KHTML, like Gecko) Chrome/90.0.4430.93 Safari/537.36",Macintosh,Chrome,90.0.4430.93,"OS X",10_15_1
51,1,505.82000000576954,z,html-keyboard-response,15,61069,0.0-15.0,IwAR0w03RrWao-7ISp3JzTqxclxvjgG7cVdB2nxuBwn_64fmYv3nnsaP-cZqs,"
    <img id = 'img_b1' width = 18% height = 32% style = 'position:absolute;top:10%;left:25%'>
    <img id = 'img_b2' width = 18% height = 32% style = 'position:absolute;top:10%;right:25%'>
    <img id = 'img_b3' width = 18% height = 32% style = 'position:absolute;bottom:10%;left:25%'>
    <img id = 'img_b4' width = 18% height = 32% style = 'position:absolute;bottom:10%;right:25%'>
    <div id = 'cum' style = 'position:absolute;top:5%;right:5%;font-size:calc(18px + 6 * ((100vw - 320px) / 680))'></div>
  ","""","""","""","""","""","""","""","""","""","2021-05-05 14:16:49",106.205.212.158,"Mozilla/5.0 (Macintosh; Intel Mac OS X 10_15_1) AppleWebKit/537.36 (KHTML, like Gecko) Chrome/90.0.4430.93 Safari/537.36",Macintosh,Chrome,90.0.4430.93,"OS X",10_15_1
51,1,null,null,html-keyboard-response,16,62571,0.0-16.0,IwAR0w03RrWao-7ISp3JzTqxclxvjgG7cVdB2nxuBwn_64fmYv3nnsaP-cZqs,"
    <img id = 'img_b1' width = 18% height = 32% style = 'position:absolute;top:10%;left:25%'>
    <img id = 'img_b2' width = 18% height = 32% style = 'position:absolute;top:10%;right:25%'>
    <img id = 'img_b3' width = 18% height = 32% style = 'position:absolute;bottom:10%;left:25%'>
    <img id = 'img_b4' width = 18% height = 32% style = 'position:absolute;bottom:10%;right:25%'>
    <div id = 'band_txt'></div>
    <div id = 'cum' style = 'position:absolute;top:5%;right:5%;font-size:calc(18px + 6 * ((100vw - 320px) / 680))'></div>
  ","""","""","""","""","""","""","""","""","""","2021-05-05 14:16:49",106.205.212.158,"Mozilla/5.0 (Macintosh; Intel Mac OS X 10_15_1) AppleWebKit/537.36 (KHTML, like Gecko) Chrome/90.0.4430.93 Safari/537.36",Macintosh,Chrome,90.0.4430.93,"OS X",10_15_1
51,1,null,null,html-keyboard-response,17,63323,0.0-17.0,IwAR0w03RrWao-7ISp3JzTqxclxvjgG7cVdB2nxuBwn_64fmYv3nnsaP-cZqs,"<div style=""font-size:60px;"">+</div>","""","""","""","""","""","""","""","""","""","2021-05-05 14:16:49",106.205.212.158,"Mozilla/5.0 (Macintosh; Intel Mac OS X 10_15_1) AppleWebKit/537.36 (KHTML, like Gecko) Chrome/90.0.4430.93 Safari/537.36",Macintosh,Chrome,90.0.4430.93,"OS X",10_15_1
51,1,397.64999999897555,z,html-keyboard-response,18,63722,0.0-18.0,IwAR0w03RrWao-7ISp3JzTqxclxvjgG7cVdB2nxuBwn_64fmYv3nnsaP-cZqs,"
    <img id = 'img_b1' width = 18% height = 32% style = 'position:absolute;top:10%;left:25%'>
    <img id = 'img_b2' width = 18% height = 32% style = 'position:absolute;top:10%;right:25%'>
    <img id = 'img_b3' width = 18% height = 32% style = 'position:absolute;bottom:10%;left:25%'>
    <img id = 'img_b4' width = 18% height = 32% style = 'position:absolute;bottom:10%;right:25%'>
    <div id = 'cum' style = 'position:absolute;top:5%;right:5%;font-size:calc(18px + 6 * ((100vw - 320px) / 680))'></div>
  ","""","""","""","""","""","""","""","""","""","2021-05-05 14:16:49",106.205.212.158,"Mozilla/5.0 (Macintosh; Intel Mac OS X 10_15_1) AppleWebKit/537.36 (KHTML, like Gecko) Chrome/90.0.4430.93 Safari/537.36",Macintosh,Chrome,90.0.4430.93,"OS X",10_15_1
51,1,null,null,html-keyboard-response,19,65228,0.0-19.0,IwAR0w03RrWao-7ISp3JzTqxclxvjgG7cVdB2nxuBwn_64fmYv3nnsaP-cZqs,"
    <img id = 'img_b1' width = 18% height = 32% style = 'position:absolute;top:10%;left:25%'>
    <img id = 'img_b2' width = 18% height = 32% style = 'position:absolute;top:10%;right:25%'>
    <img id = 'img_b3' width = 18% height = 32% style = 'position:absolute;bottom:10%;left:25%'>
    <img id = 'img_b4' width = 18% height = 32% style = 'position:absolute;bottom:10%;right:25%'>
    <div id = 'band_txt'></div>
    <div id = 'cum' style = 'position:absolute;top:5%;right:5%;font-size:calc(18px + 6 * ((100vw - 320px) / 680))'></div>
  ","""","""","""","""","""","""","""","""","""","2021-05-05 14:16:49",106.205.212.158,"Mozilla/5.0 (Macintosh; Intel Mac OS X 10_15_1) AppleWebKit/537.36 (KHTML, like Gecko) Chrome/90.0.4430.93 Safari/537.36",Macintosh,Chrome,90.0.4430.93,"OS X",10_15_1
51,1,null,null,html-keyboard-response,20,66482,0.0-20.0,IwAR0w03RrWao-7ISp3JzTqxclxvjgG7cVdB2nxuBwn_64fmYv3nnsaP-cZqs,"<div style=""font-size:60px;"">+</div>","""","""","""","""","""","""","""","""","""","2021-05-05 14:16:49",106.205.212.158,"Mozilla/5.0 (Macintosh; Intel Mac OS X 10_15_1) AppleWebKit/537.36 (KHTML, like Gecko) Chrome/90.0.4430.93 Safari/537.36",Macintosh,Chrome,90.0.4430.93,"OS X",10_15_1
51,1,308.42000000120606,q,html-keyboard-response,21,66793,0.0-21.0,IwAR0w03RrWao-7ISp3JzTqxclxvjgG7cVdB2nxuBwn_64fmYv3nnsaP-cZqs,"
    <img id = 'img_b1' width = 18% height = 32% style = 'position:absolute;top:10%;left:25%'>
    <img id = 'img_b2' width = 18% height = 32% style = 'position:absolute;top:10%;right:25%'>
    <img id = 'img_b3' width = 18% height = 32% style = 'position:absolute;bottom:10%;left:25%'>
    <img id = 'img_b4' width = 18% height = 32% style = 'position:absolute;bottom:10%;right:25%'>
    <div id = 'cum' style = 'position:absolute;top:5%;right:5%;font-size:calc(18px + 6 * ((100vw - 320px) / 680))'></div>
  ","""","""","""","""","""","""","""","""","""","2021-05-05 14:16:49",106.205.212.158,"Mozilla/5.0 (Macintosh; Intel Mac OS X 10_15_1) AppleWebKit/537.36 (KHTML, like Gecko) Chrome/90.0.4430.93 Safari/537.36",Macintosh,Chrome,90.0.4430.93,"OS X",10_15_1
51,1,null,null,html-keyboard-response,22,68299,0.0-22.0,IwAR0w03RrWao-7ISp3JzTqxclxvjgG7cVdB2nxuBwn_64fmYv3nnsaP-cZqs,"
    <img id = 'img_b1' width = 18% height = 32% style = 'position:absolute;top:10%;left:25%'>
    <img id = 'img_b2' width = 18% height = 32% style = 'position:absolute;top:10%;right:25%'>
    <img id = 'img_b3' width = 18% height = 32% style = 'position:absolute;bottom:10%;left:25%'>
    <img id = 'img_b4' width = 18% height = 32% style = 'position:absolute;bottom:10%;right:25%'>
    <div id = 'band_txt'></div>
    <div id = 'cum' style = 'position:absolute;top:5%;right:5%;font-size:calc(18px + 6 * ((100vw - 320px) / 680))'></div>
  ","""","""","""","""","""","""","""","""","""","2021-05-05 14:16:49",106.205.212.158,"Mozilla/5.0 (Macintosh; Intel Mac OS X 10_15_1) AppleWebKit/537.36 (KHTML, like Gecko) Chrome/90.0.4430.93 Safari/537.36",Macintosh,Chrome,90.0.4430.93,"OS X",10_15_1
51,1,null,null,html-keyboard-response,23,69802,0.0-23.0,IwAR0w03RrWao-7ISp3JzTqxclxvjgG7cVdB2nxuBwn_64fmYv3nnsaP-cZqs,"<div style=""font-size:60px;"">+</div>","""","""","""","""","""","""","""","""","""","2021-05-05 14:16:49",106.205.212.158,"Mozilla/5.0 (Macintosh; Intel Mac OS X 10_15_1) AppleWebKit/537.36 (KHTML, like Gecko) Chrome/90.0.4430.93 Safari/537.36",Macintosh,Chrome,90.0.4430.93,"OS X",10_15_1
51,1,480.1000000006752,p,html-keyboard-response,24,70283,0.0-24.0,IwAR0w03RrWao-7ISp3JzTqxclxvjgG7cVdB2nxuBwn_64fmYv3nnsaP-cZqs,"
    <img id = 'img_b1' width = 18% height = 32% style = 'position:absolute;top:10%;left:25%'>
    <img id = 'img_b2' width = 18% height = 32% style = 'position:absolute;top:10%;right:25%'>
    <img id = 'img_b3' width = 18% height = 32% style = 'position:absolute;bottom:10%;left:25%'>
    <img id = 'img_b4' width = 18% height = 32% style = 'position:absolute;bottom:10%;right:25%'>
    <div id = 'cum' style = 'position:absolute;top:5%;right:5%;font-size:calc(18px + 6 * ((100vw - 320px) / 680))'></div>
  ","""","""","""","""","""","""","""","""","""","2021-05-05 14:16:49",106.205.212.158,"Mozilla/5.0 (Macintosh; Intel Mac OS X 10_15_1) AppleWebKit/537.36 (KHTML, like Gecko) Chrome/90.0.4430.93 Safari/537.36",Macintosh,Chrome,90.0.4430.93,"OS X",10_15_1
51,1,null,null,html-keyboard-response,25,71788,0.0-25.0,IwAR0w03RrWao-7ISp3JzTqxclxvjgG7cVdB2nxuBwn_64fmYv3nnsaP-cZqs,"
    <img id = 'img_b1' width = 18% height = 32% style = 'position:absolute;top:10%;left:25%'>
    <img id = 'img_b2' width = 18% height = 32% style = 'position:absolute;top:10%;right:25%'>
    <img id = 'img_b3' width = 18% height = 32% style = 'position:absolute;bottom:10%;left:25%'>
    <img id = 'img_b4' width = 18% height = 32% style = 'position:absolute;bottom:10%;right:25%'>
    <div id = 'band_txt'></div>
    <div id = 'cum' style = 'position:absolute;top:5%;right:5%;font-size:calc(18px + 6 * ((100vw - 320px) / 680))'></div>
  ","""","""","""","""","""","""","""","""","""","2021-05-05 14:16:49",106.205.212.158,"Mozilla/5.0 (Macintosh; Intel Mac OS X 10_15_1) AppleWebKit/537.36 (KHTML, like Gecko) Chrome/90.0.4430.93 Safari/537.36",Macintosh,Chrome,90.0.4430.93,"OS X",10_15_1
51,1,null,null,html-keyboard-response,26,73553,0.0-26.0,IwAR0w03RrWao-7ISp3JzTqxclxvjgG7cVdB2nxuBwn_64fmYv3nnsaP-cZqs,"<div style=""font-size:60px;"">+</div>","""","""","""","""","""","""","""","""","""","2021-05-05 14:16:49",106.205.212.158,"Mozilla/5.0 (Macintosh; Intel Mac OS X 10_15_1) AppleWebKit/537.36 (KHTML, like Gecko) Chrome/90.0.4430.93 Safari/537.36",Macintosh,Chrome,90.0.4430.93,"OS X",10_15_1
51,1,445.9599999972852,p,html-keyboard-response,27,74001,0.0-27.0,IwAR0w03RrWao-7ISp3JzTqxclxvjgG7cVdB2nxuBwn_64fmYv3nnsaP-cZqs,"
    <img id = 'img_b1' width = 18% height = 32% style = 'position:absolute;top:10%;left:25%'>
    <img id = 'img_b2' width = 18% height = 32% style = 'position:absolute;top:10%;right:25%'>
    <img id = 'img_b3' width = 18% height = 32% style = 'position:absolute;bottom:10%;left:25%'>
    <img id = 'img_b4' width = 18% height = 32% style = 'position:absolute;bottom:10%;right:25%'>
    <div id = 'cum' style = 'position:absolute;top:5%;right:5%;font-size:calc(18px + 6 * ((100vw - 320px) / 680))'></div>
  ","""","""","""","""","""","""","""","""","""","2021-05-05 14:16:49",106.205.212.158,"Mozilla/5.0 (Macintosh; Intel Mac OS X 10_15_1) AppleWebKit/537.36 (KHTML, like Gecko) Chrome/90.0.4430.93 Safari/537.36",Macintosh,Chrome,90.0.4430.93,"OS X",10_15_1
51,1,null,null,html-keyboard-response,28,75503,0.0-28.0,IwAR0w03RrWao-7ISp3JzTqxclxvjgG7cVdB2nxuBwn_64fmYv3nnsaP-cZqs,"
    <img id = 'img_b1' width = 18% height = 32% style = 'position:absolute;top:10%;left:25%'>
    <img id = 'img_b2' width = 18% height = 32% style = 'position:absolute;top:10%;right:25%'>
    <img id = 'img_b3' width = 18% height = 32% style = 'position:absolute;bottom:10%;left:25%'>
    <img id = 'img_b4' width = 18% height = 32% style = 'position:absolute;bottom:10%;right:25%'>
    <div id = 'band_txt'></div>
    <div id = 'cum' style = 'position:absolute;top:5%;right:5%;font-size:calc(18px + 6 * ((100vw - 320px) / 680))'></div>
  ","""","""","""","""","""","""","""","""","""","2021-05-05 14:16:49",106.205.212.158,"Mozilla/5.0 (Macintosh; Intel Mac OS X 10_15_1) AppleWebKit/537.36 (KHTML, like Gecko) Chrome/90.0.4430.93 Safari/537.36",Macintosh,Chrome,90.0.4430.93,"OS X",10_15_1
51,1,null,null,html-keyboard-response,29,76507,0.0-29.0,IwAR0w03RrWao-7ISp3JzTqxclxvjgG7cVdB2nxuBwn_64fmYv3nnsaP-cZqs,"<div style=""font-size:60px;"">+</div>","""","""","""","""","""","""","""","""","""","2021-05-05 14:16:49",106.205.212.158,"Mozilla/5.0 (Macintosh; Intel Mac OS X 10_15_1) AppleWebKit/537.36 (KHTML, like Gecko) Chrome/90.0.4430.93 Safari/537.36",Macintosh,Chrome,90.0.4430.93,"OS X",10_15_1
51,1,439.1600000089966,m,html-keyboard-response,30,76948,0.0-30.0,IwAR0w03RrWao-7ISp3JzTqxclxvjgG7cVdB2nxuBwn_64fmYv3nnsaP-cZqs,"
    <img id = 'img_b1' width = 18% height = 32% style = 'position:absolute;top:10%;left:25%'>
    <img id = 'img_b2' width = 18% height = 32% style = 'position:absolute;top:10%;right:25%'>
    <img id = 'img_b3' width = 18% height = 32% style = 'position:absolute;bottom:10%;left:25%'>
    <img id = 'img_b4' width = 18% height = 32% style = 'position:absolute;bottom:10%;right:25%'>
    <div id = 'cum' style = 'position:absolute;top:5%;right:5%;font-size:calc(18px + 6 * ((100vw - 320px) / 680))'></div>
  ","""","""","""","""","""","""","""","""","""","2021-05-05 14:16:49",106.205.212.158,"Mozilla/5.0 (Macintosh; Intel Mac OS X 10_15_1) AppleWebKit/537.36 (KHTML, like Gecko) Chrome/90.0.4430.93 Safari/537.36",Macintosh,Chrome,90.0.4430.93,"OS X",10_15_1
51,1,null,null,html-keyboard-response,31,78451,0.0-31.0,IwAR0w03RrWao-7ISp3JzTqxclxvjgG7cVdB2nxuBwn_64fmYv3nnsaP-cZqs,"
    <img id = 'img_b1' width = 18% height = 32% style = 'position:absolute;top:10%;left:25%'>
    <img id = 'img_b2' width = 18% height = 32% style = 'position:absolute;top:10%;right:25%'>
    <img id = 'img_b3' width = 18% height = 32% style = 'position:absolute;bottom:10%;left:25%'>
    <img id = 'img_b4' width = 18% height = 32% style = 'position:absolute;bottom:10%;right:25%'>
    <div id = 'band_txt'></div>
    <div id = 'cum' style = 'position:absolute;top:5%;right:5%;font-size:calc(18px + 6 * ((100vw - 320px) / 680))'></div>
  ","""","""","""","""","""","""","""","""","""","2021-05-05 14:16:49",106.205.212.158,"Mozilla/5.0 (Macintosh; Intel Mac OS X 10_15_1) AppleWebKit/537.36 (KHTML, like Gecko) Chrome/90.0.4430.93 Safari/537.36",Macintosh,Chrome,90.0.4430.93,"OS X",10_15_1
51,1,null,null,html-keyboard-response,32,79955,0.0-32.0,IwAR0w03RrWao-7ISp3JzTqxclxvjgG7cVdB2nxuBwn_64fmYv3nnsaP-cZqs,"<div style=""font-size:60px;"">+</div>","""","""","""","""","""","""","""","""","""","2021-05-05 14:16:49",106.205.212.158,"Mozilla/5.0 (Macintosh; Intel Mac OS X 10_15_1) AppleWebKit/537.36 (KHTML, like Gecko) Chrome/90.0.4430.93 Safari/537.36",Macintosh,Chrome,90.0.4430.93,"OS X",10_15_1
51,1,247.38499999511987,z,html-keyboard-response,33,80209,0.0-33.0,IwAR0w03RrWao-7ISp3JzTqxclxvjgG7cVdB2nxuBwn_64fmYv3nnsaP-cZqs,"
    <img id = 'img_b1' width = 18% height = 32% style = 'position:absolute;top:10%;left:25%'>
    <img id = 'img_b2' width = 18% height = 32% style = 'position:absolute;top:10%;right:25%'>
    <img id = 'img_b3' width = 18% height = 32% style = 'position:absolute;bottom:10%;left:25%'>
    <img id = 'img_b4' width = 18% height = 32% style = 'position:absolute;bottom:10%;right:25%'>
    <div id = 'cum' style = 'position:absolute;top:5%;right:5%;font-size:calc(18px + 6 * ((100vw - 320px) / 680))'></div>
  ","""","""","""","""","""","""","""","""","""","2021-05-05 14:16:49",106.205.212.158,"Mozilla/5.0 (Macintosh; Intel Mac OS X 10_15_1) AppleWebKit/537.36 (KHTML, like Gecko) Chrome/90.0.4430.93 Safari/537.36",Macintosh,Chrome,90.0.4430.93,"OS X",10_15_1
51,1,null,null,html-keyboard-response,34,81715,0.0-34.0,IwAR0w03RrWao-7ISp3JzTqxclxvjgG7cVdB2nxuBwn_64fmYv3nnsaP-cZqs,"
    <img id = 'img_b1' width = 18% height = 32% style = 'position:absolute;top:10%;left:25%'>
    <img id = 'img_b2' width = 18% height = 32% style = 'position:absolute;top:10%;right:25%'>
    <img id = 'img_b3' width = 18% height = 32% style = 'position:absolute;bottom:10%;left:25%'>
    <img id = 'img_b4' width = 18% height = 32% style = 'position:absolute;bottom:10%;right:25%'>
    <div id = 'band_txt'></div>
    <div id = 'cum' style = 'position:absolute;top:5%;right:5%;font-size:calc(18px + 6 * ((100vw - 320px) / 680))'></div>
  ","""","""","""","""","""","""","""","""","""","2021-05-05 14:16:49",106.205.212.158,"Mozilla/5.0 (Macintosh; Intel Mac OS X 10_15_1) AppleWebKit/537.36 (KHTML, like Gecko) Chrome/90.0.4430.93 Safari/537.36",Macintosh,Chrome,90.0.4430.93,"OS X",10_15_1
51,1,null,null,html-keyboard-response,35,83467,0.0-35.0,IwAR0w03RrWao-7ISp3JzTqxclxvjgG7cVdB2nxuBwn_64fmYv3nnsaP-cZqs,"<div style=""font-size:60px;"">+</div>","""","""","""","""","""","""","""","""","""","2021-05-05 14:16:49",106.205.212.158,"Mozilla/5.0 (Macintosh; Intel Mac OS X 10_15_1) AppleWebKit/537.36 (KHTML, like Gecko) Chrome/90.0.4430.93 Safari/537.36",Macintosh,Chrome,90.0.4430.93,"OS X",10_15_1
51,1,291.4700000110315,z,html-keyboard-response,36,83760,0.0-36.0,IwAR0w03RrWao-7ISp3JzTqxclxvjgG7cVdB2nxuBwn_64fmYv3nnsaP-cZqs,"
    <img id = 'img_b1' width = 18% height = 32% style = 'position:absolute;top:10%;left:25%'>
    <img id = 'img_b2' width = 18% height = 32% style = 'position:absolute;top:10%;right:25%'>
    <img id = 'img_b3' width = 18% height = 32% style = 'position:absolute;bottom:10%;left:25%'>
    <img id = 'img_b4' width = 18% height = 32% style = 'position:absolute;bottom:10%;right:25%'>
    <div id = 'cum' style = 'position:absolute;top:5%;right:5%;font-size:calc(18px + 6 * ((100vw - 320px) / 680))'></div>
  ","""","""","""","""","""","""","""","""","""","2021-05-05 14:16:49",106.205.212.158,"Mozilla/5.0 (Macintosh; Intel Mac OS X 10_15_1) AppleWebKit/537.36 (KHTML, like Gecko) Chrome/90.0.4430.93 Safari/537.36",Macintosh,Chrome,90.0.4430.93,"OS X",10_15_1
51,1,null,null,html-keyboard-response,37,85262,0.0-37.0,IwAR0w03RrWao-7ISp3JzTqxclxvjgG7cVdB2nxuBwn_64fmYv3nnsaP-cZqs,"
    <img id = 'img_b1' width = 18% height = 32% style = 'position:absolute;top:10%;left:25%'>
    <img id = 'img_b2' width = 18% height = 32% style = 'position:absolute;top:10%;right:25%'>
    <img id = 'img_b3' width = 18% height = 32% style = 'position:absolute;bottom:10%;left:25%'>
    <img id = 'img_b4' width = 18% height = 32% style = 'position:absolute;bottom:10%;right:25%'>
    <div id = 'band_txt'></div>
    <div id = 'cum' style = 'position:absolute;top:5%;right:5%;font-size:calc(18px + 6 * ((100vw - 320px) / 680))'></div>
  ","""","""","""","""","""","""","""","""","""","2021-05-05 14:16:49",106.205.212.158,"Mozilla/5.0 (Macintosh; Intel Mac OS X 10_15_1) AppleWebKit/537.36 (KHTML, like Gecko) Chrome/90.0.4430.93 Safari/537.36",Macintosh,Chrome,90.0.4430.93,"OS X",10_15_1
51,1,null,null,html-keyboard-response,38,86515,0.0-38.0,IwAR0w03RrWao-7ISp3JzTqxclxvjgG7cVdB2nxuBwn_64fmYv3nnsaP-cZqs,"<div style=""font-size:60px;"">+</div>","""","""","""","""","""","""","""","""","""","2021-05-05 14:16:49",106.205.212.158,"Mozilla/5.0 (Macintosh; Intel Mac OS X 10_15_1) AppleWebKit/537.36 (KHTML, like Gecko) Chrome/90.0.4430.93 Safari/537.36",Macintosh,Chrome,90.0.4430.93,"OS X",10_15_1
51,1,299.79000000457745,z,html-keyboard-response,39,86819,0.0-39.0,IwAR0w03RrWao-7ISp3JzTqxclxvjgG7cVdB2nxuBwn_64fmYv3nnsaP-cZqs,"
    <img id = 'img_b1' width = 18% height = 32% style = 'position:absolute;top:10%;left:25%'>
    <img id = 'img_b2' width = 18% height = 32% style = 'position:absolute;top:10%;right:25%'>
    <img id = 'img_b3' width = 18% height = 32% style = 'position:absolute;bottom:10%;left:25%'>
    <img id = 'img_b4' width = 18% height = 32% style = 'position:absolute;bottom:10%;right:25%'>
    <div id = 'cum' style = 'position:absolute;top:5%;right:5%;font-size:calc(18px + 6 * ((100vw - 320px) / 680))'></div>
  ","""","""","""","""","""","""","""","""","""","2021-05-05 14:16:49",106.205.212.158,"Mozilla/5.0 (Macintosh; Intel Mac OS X 10_15_1) AppleWebKit/537.36 (KHTML, like Gecko) Chrome/90.0.4430.93 Safari/537.36",Macintosh,Chrome,90.0.4430.93,"OS X",10_15_1
51,1,null,null,html-keyboard-response,40,88321,0.0-40.0,IwAR0w03RrWao-7ISp3JzTqxclxvjgG7cVdB2nxuBwn_64fmYv3nnsaP-cZqs,"
    <img id = 'img_b1' width = 18% height = 32% style = 'position:absolute;top:10%;left:25%'>
    <img id = 'img_b2' width = 18% height = 32% style = 'position:absolute;top:10%;right:25%'>
    <img id = 'img_b3' width = 18% height = 32% style = 'position:absolute;bottom:10%;left:25%'>
    <img id = 'img_b4' width = 18% height = 32% style = 'position:absolute;bottom:10%;right:25%'>
    <div id = 'band_txt'></div>
    <div id = 'cum' style = 'position:absolute;top:5%;right:5%;font-size:calc(18px + 6 * ((100vw - 320px) / 680))'></div>
  ","""","""","""","""","""","""","""","""","""","2021-05-05 14:16:49",106.205.212.158,"Mozilla/5.0 (Macintosh; Intel Mac OS X 10_15_1) AppleWebKit/537.36 (KHTML, like Gecko) Chrome/90.0.4430.93 Safari/537.36",Macintosh,Chrome,90.0.4430.93,"OS X",10_15_1
51,1,null,null,html-keyboard-response,41,89325,0.0-41.0,IwAR0w03RrWao-7ISp3JzTqxclxvjgG7cVdB2nxuBwn_64fmYv3nnsaP-cZqs,"<div style=""font-size:60px;"">+</div>","""","""","""","""","""","""","""","""","""","2021-05-05 14:16:49",106.205.212.158,"Mozilla/5.0 (Macintosh; Intel Mac OS X 10_15_1) AppleWebKit/537.36 (KHTML, like Gecko) Chrome/90.0.4430.93 Safari/537.36",Macintosh,Chrome,90.0.4430.93,"OS X",10_15_1
51,1,517.3250000079861,q,html-keyboard-response,42,89843,0.0-42.0,IwAR0w03RrWao-7ISp3JzTqxclxvjgG7cVdB2nxuBwn_64fmYv3nnsaP-cZqs,"
    <img id = 'img_b1' width = 18% height = 32% style = 'position:absolute;top:10%;left:25%'>
    <img id = 'img_b2' width = 18% height = 32% style = 'position:absolute;top:10%;right:25%'>
    <img id = 'img_b3' width = 18% height = 32% style = 'position:absolute;bottom:10%;left:25%'>
    <img id = 'img_b4' width = 18% height = 32% style = 'position:absolute;bottom:10%;right:25%'>
    <div id = 'cum' style = 'position:absolute;top:5%;right:5%;font-size:calc(18px + 6 * ((100vw - 320px) / 680))'></div>
  ","""","""","""","""","""","""","""","""","""","2021-05-05 14:16:49",106.205.212.158,"Mozilla/5.0 (Macintosh; Intel Mac OS X 10_15_1) AppleWebKit/537.36 (KHTML, like Gecko) Chrome/90.0.4430.93 Safari/537.36",Macintosh,Chrome,90.0.4430.93,"OS X",10_15_1
51,1,null,null,html-keyboard-response,43,91345,0.0-43.0,IwAR0w03RrWao-7ISp3JzTqxclxvjgG7cVdB2nxuBwn_64fmYv3nnsaP-cZqs,"
    <img id = 'img_b1' width = 18% height = 32% style = 'position:absolute;top:10%;left:25%'>
    <img id = 'img_b2' width = 18% height = 32% style = 'position:absolute;top:10%;right:25%'>
    <img id = 'img_b3' width = 18% height = 32% style = 'position:absolute;bottom:10%;left:25%'>
    <img id = 'img_b4' width = 18% height = 32% style = 'position:absolute;bottom:10%;right:25%'>
    <div id = 'band_txt'></div>
    <div id = 'cum' style = 'position:absolute;top:5%;right:5%;font-size:calc(18px + 6 * ((100vw - 320px) / 680))'></div>
  ","""","""","""","""","""","""","""","""","""","2021-05-05 14:16:49",106.205.212.158,"Mozilla/5.0 (Macintosh; Intel Mac OS X 10_15_1) AppleWebKit/537.36 (KHTML, like Gecko) Chrome/90.0.4430.93 Safari/537.36",Macintosh,Chrome,90.0.4430.93,"OS X",10_15_1
51,1,null,null,html-keyboard-response,44,93098,0.0-44.0,IwAR0w03RrWao-7ISp3JzTqxclxvjgG7cVdB2nxuBwn_64fmYv3nnsaP-cZqs,"<div style=""font-size:60px;"">+</div>","""","""","""","""","""","""","""","""","""","2021-05-05 14:16:49",106.205.212.158,"Mozilla/5.0 (Macintosh; Intel Mac OS X 10_15_1) AppleWebKit/537.36 (KHTML, like Gecko) Chrome/90.0.4430.93 Safari/537.36",Macintosh,Chrome,90.0.4430.93,"OS X",10_15_1
51,1,313.2000000041444,z,html-keyboard-response,45,93416,0.0-45.0,IwAR0w03RrWao-7ISp3JzTqxclxvjgG7cVdB2nxuBwn_64fmYv3nnsaP-cZqs,"
    <img id = 'img_b1' width = 18% height = 32% style = 'position:absolute;top:10%;left:25%'>
    <img id = 'img_b2' width = 18% height = 32% style = 'position:absolute;top:10%;right:25%'>
    <img id = 'img_b3' width = 18% height = 32% style = 'position:absolute;bottom:10%;left:25%'>
    <img id = 'img_b4' width = 18% height = 32% style = 'position:absolute;bottom:10%;right:25%'>
    <div id = 'cum' style = 'position:absolute;top:5%;right:5%;font-size:calc(18px + 6 * ((100vw - 320px) / 680))'></div>
  ","""","""","""","""","""","""","""","""","""","2021-05-05 14:16:49",106.205.212.158,"Mozilla/5.0 (Macintosh; Intel Mac OS X 10_15_1) AppleWebKit/537.36 (KHTML, like Gecko) Chrome/90.0.4430.93 Safari/537.36",Macintosh,Chrome,90.0.4430.93,"OS X",10_15_1
51,1,null,null,html-keyboard-response,46,94921,0.0-46.0,IwAR0w03RrWao-7ISp3JzTqxclxvjgG7cVdB2nxuBwn_64fmYv3nnsaP-cZqs,"
    <img id = 'img_b1' width = 18% height = 32% style = 'position:absolute;top:10%;left:25%'>
    <img id = 'img_b2' width = 18% height = 32% style = 'position:absolute;top:10%;right:25%'>
    <img id = 'img_b3' width = 18% height = 32% style = 'position:absolute;bottom:10%;left:25%'>
    <img id = 'img_b4' width = 18% height = 32% style = 'position:absolute;bottom:10%;right:25%'>
    <div id = 'band_txt'></div>
    <div id = 'cum' style = 'position:absolute;top:5%;right:5%;font-size:calc(18px + 6 * ((100vw - 320px) / 680))'></div>
  ","""","""","""","""","""","""","""","""","""","2021-05-05 14:16:49",106.205.212.158,"Mozilla/5.0 (Macintosh; Intel Mac OS X 10_15_1) AppleWebKit/537.36 (KHTML, like Gecko) Chrome/90.0.4430.93 Safari/537.36",Macintosh,Chrome,90.0.4430.93,"OS X",10_15_1
51,1,null,null,html-keyboard-response,47,96175,0.0-47.0,IwAR0w03RrWao-7ISp3JzTqxclxvjgG7cVdB2nxuBwn_64fmYv3nnsaP-cZqs,"<div style=""font-size:60px;"">+</div>","""","""","""","""","""","""","""","""","""","2021-05-05 14:16:49",106.205.212.158,"Mozilla/5.0 (Macintosh; Intel Mac OS X 10_15_1) AppleWebKit/537.36 (KHTML, like Gecko) Chrome/90.0.4430.93 Safari/537.36",Macintosh,Chrome,90.0.4430.93,"OS X",10_15_1
51,1,251.11499999184161,z,html-keyboard-response,48,96428,0.0-48.0,IwAR0w03RrWao-7ISp3JzTqxclxvjgG7cVdB2nxuBwn_64fmYv3nnsaP-cZqs,"
    <img id = 'img_b1' width = 18% height = 32% style = 'position:absolute;top:10%;left:25%'>
    <img id = 'img_b2' width = 18% height = 32% style = 'position:absolute;top:10%;right:25%'>
    <img id = 'img_b3' width = 18% height = 32% style = 'position:absolute;bottom:10%;left:25%'>
    <img id = 'img_b4' width = 18% height = 32% style = 'position:absolute;bottom:10%;right:25%'>
    <div id = 'cum' style = 'position:absolute;top:5%;right:5%;font-size:calc(18px + 6 * ((100vw - 320px) / 680))'></div>
  ","""","""","""","""","""","""","""","""","""","2021-05-05 14:16:49",106.205.212.158,"Mozilla/5.0 (Macintosh; Intel Mac OS X 10_15_1) AppleWebKit/537.36 (KHTML, like Gecko) Chrome/90.0.4430.93 Safari/537.36",Macintosh,Chrome,90.0.4430.93,"OS X",10_15_1
51,1,null,null,html-keyboard-response,49,97934,0.0-49.0,IwAR0w03RrWao-7ISp3JzTqxclxvjgG7cVdB2nxuBwn_64fmYv3nnsaP-cZqs,"
    <img id = 'img_b1' width = 18% height = 32% style = 'position:absolute;top:10%;left:25%'>
    <img id = 'img_b2' width = 18% height = 32% style = 'position:absolute;top:10%;right:25%'>
    <img id = 'img_b3' width = 18% height = 32% style = 'position:absolute;bottom:10%;left:25%'>
    <img id = 'img_b4' width = 18% height = 32% style = 'position:absolute;bottom:10%;right:25%'>
    <div id = 'band_txt'></div>
    <div id = 'cum' style = 'position:absolute;top:5%;right:5%;font-size:calc(18px + 6 * ((100vw - 320px) / 680))'></div>
  ","""","""","""","""","""","""","""","""","""","2021-05-05 14:16:49",106.205.212.158,"Mozilla/5.0 (Macintosh; Intel Mac OS X 10_15_1) AppleWebKit/537.36 (KHTML, like Gecko) Chrome/90.0.4430.93 Safari/537.36",Macintosh,Chrome,90.0.4430.93,"OS X",10_15_1
51,1,null,null,html-keyboard-response,50,98689,0.0-50.0,IwAR0w03RrWao-7ISp3JzTqxclxvjgG7cVdB2nxuBwn_64fmYv3nnsaP-cZqs,"<div style=""font-size:60px;"">+</div>","""","""","""","""","""","""","""","""","""","2021-05-05 14:16:49",106.205.212.158,"Mozilla/5.0 (Macintosh; Intel Mac OS X 10_15_1) AppleWebKit/537.36 (KHTML, like Gecko) Chrome/90.0.4430.93 Safari/537.36",Macintosh,Chrome,90.0.4430.93,"OS X",10_15_1
51,1,353.9100000052713,z,html-keyboard-response,51,99053,0.0-51.0,IwAR0w03RrWao-7ISp3JzTqxclxvjgG7cVdB2nxuBwn_64fmYv3nnsaP-cZqs,"
    <img id = 'img_b1' width = 18% height = 32% style = 'position:absolute;top:10%;left:25%'>
    <img id = 'img_b2' width = 18% height = 32% style = 'position:absolute;top:10%;right:25%'>
    <img id = 'img_b3' width = 18% height = 32% style = 'position:absolute;bottom:10%;left:25%'>
    <img id = 'img_b4' width = 18% height = 32% style = 'position:absolute;bottom:10%;right:25%'>
    <div id = 'cum' style = 'position:absolute;top:5%;right:5%;font-size:calc(18px + 6 * ((100vw - 320px) / 680))'></div>
  ","""","""","""","""","""","""","""","""","""","2021-05-05 14:16:49",106.205.212.158,"Mozilla/5.0 (Macintosh; Intel Mac OS X 10_15_1) AppleWebKit/537.36 (KHTML, like Gecko) Chrome/90.0.4430.93 Safari/537.36",Macintosh,Chrome,90.0.4430.93,"OS X",10_15_1
51,1,null,null,html-keyboard-response,52,100558,0.0-52.0,IwAR0w03RrWao-7ISp3JzTqxclxvjgG7cVdB2nxuBwn_64fmYv3nnsaP-cZqs,"
    <img id = 'img_b1' width = 18% height = 32% style = 'position:absolute;top:10%;left:25%'>
    <img id = 'img_b2' width = 18% height = 32% style = 'position:absolute;top:10%;right:25%'>
    <img id = 'img_b3' width = 18% height = 32% style = 'position:absolute;bottom:10%;left:25%'>
    <img id = 'img_b4' width = 18% height = 32% style = 'position:absolute;bottom:10%;right:25%'>
    <div id = 'band_txt'></div>
    <div id = 'cum' style = 'position:absolute;top:5%;right:5%;font-size:calc(18px + 6 * ((100vw - 320px) / 680))'></div>
  ","""","""","""","""","""","""","""","""","""","2021-05-05 14:16:49",106.205.212.158,"Mozilla/5.0 (Macintosh; Intel Mac OS X 10_15_1) AppleWebKit/537.36 (KHTML, like Gecko) Chrome/90.0.4430.93 Safari/537.36",Macintosh,Chrome,90.0.4430.93,"OS X",10_15_1
51,1,null,null,html-keyboard-response,53,101812,0.0-53.0,IwAR0w03RrWao-7ISp3JzTqxclxvjgG7cVdB2nxuBwn_64fmYv3nnsaP-cZqs,"<div style=""font-size:60px;"">+</div>","""","""","""","""","""","""","""","""","""","2021-05-05 14:16:49",106.205.212.158,"Mozilla/5.0 (Macintosh; Intel Mac OS X 10_15_1) AppleWebKit/537.36 (KHTML, like Gecko) Chrome/90.0.4430.93 Safari/537.36",Macintosh,Chrome,90.0.4430.93,"OS X",10_15_1
51,1,279.9550000054296,z,html-keyboard-response,54,102093,0.0-54.0,IwAR0w03RrWao-7ISp3JzTqxclxvjgG7cVdB2nxuBwn_64fmYv3nnsaP-cZqs,"
    <img id = 'img_b1' width = 18% height = 32% style = 'position:absolute;top:10%;left:25%'>
    <img id = 'img_b2' width = 18% height = 32% style = 'position:absolute;top:10%;right:25%'>
    <img id = 'img_b3' width = 18% height = 32% style = 'position:absolute;bottom:10%;left:25%'>
    <img id = 'img_b4' width = 18% height = 32% style = 'position:absolute;bottom:10%;right:25%'>
    <div id = 'cum' style = 'position:absolute;top:5%;right:5%;font-size:calc(18px + 6 * ((100vw - 320px) / 680))'></div>
  ","""","""","""","""","""","""","""","""","""","2021-05-05 14:16:49",106.205.212.158,"Mozilla/5.0 (Macintosh; Intel Mac OS X 10_15_1) AppleWebKit/537.36 (KHTML, like Gecko) Chrome/90.0.4430.93 Safari/537.36",Macintosh,Chrome,90.0.4430.93,"OS X",10_15_1
51,1,null,null,html-keyboard-response,55,103600,0.0-55.0,IwAR0w03RrWao-7ISp3JzTqxclxvjgG7cVdB2nxuBwn_64fmYv3nnsaP-cZqs,"
    <img id = 'img_b1' width = 18% height = 32% style = 'position:absolute;top:10%;left:25%'>
    <img id = 'img_b2' width = 18% height = 32% style = 'position:absolute;top:10%;right:25%'>
    <img id = 'img_b3' width = 18% height = 32% style = 'position:absolute;bottom:10%;left:25%'>
    <img id = 'img_b4' width = 18% height = 32% style = 'position:absolute;bottom:10%;right:25%'>
    <div id = 'band_txt'></div>
    <div id = 'cum' style = 'position:absolute;top:5%;right:5%;font-size:calc(18px + 6 * ((100vw - 320px) / 680))'></div>
  ","""","""","""","""","""","""","""","""","""","2021-05-05 14:16:49",106.205.212.158,"Mozilla/5.0 (Macintosh; Intel Mac OS X 10_15_1) AppleWebKit/537.36 (KHTML, like Gecko) Chrome/90.0.4430.93 Safari/537.36",Macintosh,Chrome,90.0.4430.93,"OS X",10_15_1
51,1,null,null,html-keyboard-response,56,104604,0.0-56.0,IwAR0w03RrWao-7ISp3JzTqxclxvjgG7cVdB2nxuBwn_64fmYv3nnsaP-cZqs,"<div style=""font-size:60px;"">+</div>","""","""","""","""","""","""","""","""","""","2021-05-05 14:16:49",106.205.212.158,"Mozilla/5.0 (Macintosh; Intel Mac OS X 10_15_1) AppleWebKit/537.36 (KHTML, like Gecko) Chrome/90.0.4430.93 Safari/537.36",Macintosh,Chrome,90.0.4430.93,"OS X",10_15_1
51,1,328.7500000005821,q,html-keyboard-response,57,104936,0.0-57.0,IwAR0w03RrWao-7ISp3JzTqxclxvjgG7cVdB2nxuBwn_64fmYv3nnsaP-cZqs,"
    <img id = 'img_b1' width = 18% height = 32% style = 'position:absolute;top:10%;left:25%'>
    <img id = 'img_b2' width = 18% height = 32% style = 'position:absolute;top:10%;right:25%'>
    <img id = 'img_b3' width = 18% height = 32% style = 'position:absolute;bottom:10%;left:25%'>
    <img id = 'img_b4' width = 18% height = 32% style = 'position:absolute;bottom:10%;right:25%'>
    <div id = 'cum' style = 'position:absolute;top:5%;right:5%;font-size:calc(18px + 6 * ((100vw - 320px) / 680))'></div>
  ","""","""","""","""","""","""","""","""","""","2021-05-05 14:16:49",106.205.212.158,"Mozilla/5.0 (Macintosh; Intel Mac OS X 10_15_1) AppleWebKit/537.36 (KHTML, like Gecko) Chrome/90.0.4430.93 Safari/537.36",Macintosh,Chrome,90.0.4430.93,"OS X",10_15_1
51,1,null,null,html-keyboard-response,58,106439,0.0-58.0,IwAR0w03RrWao-7ISp3JzTqxclxvjgG7cVdB2nxuBwn_64fmYv3nnsaP-cZqs,"
    <img id = 'img_b1' width = 18% height = 32% style = 'position:absolute;top:10%;left:25%'>
    <img id = 'img_b2' width = 18% height = 32% style = 'position:absolute;top:10%;right:25%'>
    <img id = 'img_b3' width = 18% height = 32% style = 'position:absolute;bottom:10%;left:25%'>
    <img id = 'img_b4' width = 18% height = 32% style = 'position:absolute;bottom:10%;right:25%'>
    <div id = 'band_txt'></div>
    <div id = 'cum' style = 'position:absolute;top:5%;right:5%;font-size:calc(18px + 6 * ((100vw - 320px) / 680))'></div>
  ","""","""","""","""","""","""","""","""","""","2021-05-05 14:16:49",106.205.212.158,"Mozilla/5.0 (Macintosh; Intel Mac OS X 10_15_1) AppleWebKit/537.36 (KHTML, like Gecko) Chrome/90.0.4430.93 Safari/537.36",Macintosh,Chrome,90.0.4430.93,"OS X",10_15_1
51,1,null,null,html-keyboard-response,59,107193,0.0-59.0,IwAR0w03RrWao-7ISp3JzTqxclxvjgG7cVdB2nxuBwn_64fmYv3nnsaP-cZqs,"<div style=""font-size:60px;"">+</div>","""","""","""","""","""","""","""","""","""","2021-05-05 14:16:49",106.205.212.158,"Mozilla/5.0 (Macintosh; Intel Mac OS X 10_15_1) AppleWebKit/537.36 (KHTML, like Gecko) Chrome/90.0.4430.93 Safari/537.36",Macintosh,Chrome,90.0.4430.93,"OS X",10_15_1
51,1,2061.650000003283,m,html-keyboard-response,60,109256,0.0-60.0,IwAR0w03RrWao-7ISp3JzTqxclxvjgG7cVdB2nxuBwn_64fmYv3nnsaP-cZqs,"
    <img id = 'img_b1' width = 18% height = 32% style = 'position:absolute;top:10%;left:25%'>
    <img id = 'img_b2' width = 18% height = 32% style = 'position:absolute;top:10%;right:25%'>
    <img id = 'img_b3' width = 18% height = 32% style = 'position:absolute;bottom:10%;left:25%'>
    <img id = 'img_b4' width = 18% height = 32% style = 'position:absolute;bottom:10%;right:25%'>
    <div id = 'cum' style = 'position:absolute;top:5%;right:5%;font-size:calc(18px + 6 * ((100vw - 320px) / 680))'></div>
  ","""","""","""","""","""","""","""","""","""","2021-05-05 14:16:49",106.205.212.158,"Mozilla/5.0 (Macintosh; Intel Mac OS X 10_15_1) AppleWebKit/537.36 (KHTML, like Gecko) Chrome/90.0.4430.93 Safari/537.36",Macintosh,Chrome,90.0.4430.93,"OS X",10_15_1
51,1,null,null,html-keyboard-response,61,110758,0.0-61.0,IwAR0w03RrWao-7ISp3JzTqxclxvjgG7cVdB2nxuBwn_64fmYv3nnsaP-cZqs,"
    <img id = 'img_b1' width = 18% height = 32% style = 'position:absolute;top:10%;left:25%'>
    <img id = 'img_b2' width = 18% height = 32% style = 'position:absolute;top:10%;right:25%'>
    <img id = 'img_b3' width = 18% height = 32% style = 'position:absolute;bottom:10%;left:25%'>
    <img id = 'img_b4' width = 18% height = 32% style = 'position:absolute;bottom:10%;right:25%'>
    <div id = 'band_txt'></div>
    <div id = 'cum' style = 'position:absolute;top:5%;right:5%;font-size:calc(18px + 6 * ((100vw - 320px) / 680))'></div>
  ","""","""","""","""","""","""","""","""","""","2021-05-05 14:16:49",106.205.212.158,"Mozilla/5.0 (Macintosh; Intel Mac OS X 10_15_1) AppleWebKit/537.36 (KHTML, like Gecko) Chrome/90.0.4430.93 Safari/537.36",Macintosh,Chrome,90.0.4430.93,"OS X",10_15_1
51,1,null,null,html-keyboard-response,62,111762,0.0-62.0,IwAR0w03RrWao-7ISp3JzTqxclxvjgG7cVdB2nxuBwn_64fmYv3nnsaP-cZqs,"<div style=""font-size:60px;"">+</div>","""","""","""","""","""","""","""","""","""","2021-05-05 14:16:49",106.205.212.158,"Mozilla/5.0 (Macintosh; Intel Mac OS X 10_15_1) AppleWebKit/537.36 (KHTML, like Gecko) Chrome/90.0.4430.93 Safari/537.36",Macintosh,Chrome,90.0.4430.93,"OS X",10_15_1
51,1,324.04500000120606,z,html-keyboard-response,63,112087,0.0-63.0,IwAR0w03RrWao-7ISp3JzTqxclxvjgG7cVdB2nxuBwn_64fmYv3nnsaP-cZqs,"
    <img id = 'img_b1' width = 18% height = 32% style = 'position:absolute;top:10%;left:25%'>
    <img id = 'img_b2' width = 18% height = 32% style = 'position:absolute;top:10%;right:25%'>
    <img id = 'img_b3' width = 18% height = 32% style = 'position:absolute;bottom:10%;left:25%'>
    <img id = 'img_b4' width = 18% height = 32% style = 'position:absolute;bottom:10%;right:25%'>
    <div id = 'cum' style = 'position:absolute;top:5%;right:5%;font-size:calc(18px + 6 * ((100vw - 320px) / 680))'></div>
  ","""","""","""","""","""","""","""","""","""","2021-05-05 14:16:49",106.205.212.158,"Mozilla/5.0 (Macintosh; Intel Mac OS X 10_15_1) AppleWebKit/537.36 (KHTML, like Gecko) Chrome/90.0.4430.93 Safari/537.36",Macintosh,Chrome,90.0.4430.93,"OS X",10_15_1
51,1,null,null,html-keyboard-response,64,113591,0.0-64.0,IwAR0w03RrWao-7ISp3JzTqxclxvjgG7cVdB2nxuBwn_64fmYv3nnsaP-cZqs,"
    <img id = 'img_b1' width = 18% height = 32% style = 'position:absolute;top:10%;left:25%'>
    <img id = 'img_b2' width = 18% height = 32% style = 'position:absolute;top:10%;right:25%'>
    <img id = 'img_b3' width = 18% height = 32% style = 'position:absolute;bottom:10%;left:25%'>
    <img id = 'img_b4' width = 18% height = 32% style = 'position:absolute;bottom:10%;right:25%'>
    <div id = 'band_txt'></div>
    <div id = 'cum' style = 'position:absolute;top:5%;right:5%;font-size:calc(18px + 6 * ((100vw - 320px) / 680))'></div>
  ","""","""","""","""","""","""","""","""","""","2021-05-05 14:16:49",106.205.212.158,"Mozilla/5.0 (Macintosh; Intel Mac OS X 10_15_1) AppleWebKit/537.36 (KHTML, like Gecko) Chrome/90.0.4430.93 Safari/537.36",Macintosh,Chrome,90.0.4430.93,"OS X",10_15_1
51,1,null,null,html-keyboard-response,65,115346,0.0-65.0,IwAR0w03RrWao-7ISp3JzTqxclxvjgG7cVdB2nxuBwn_64fmYv3nnsaP-cZqs,"<div style=""font-size:60px;"">+</div>","""","""","""","""","""","""","""","""","""","2021-05-05 14:16:49",106.205.212.158,"Mozilla/5.0 (Macintosh; Intel Mac OS X 10_15_1) AppleWebKit/537.36 (KHTML, like Gecko) Chrome/90.0.4430.93 Safari/537.36",Macintosh,Chrome,90.0.4430.93,"OS X",10_15_1
51,1,454.5749999961117,z,html-keyboard-response,66,115802,0.0-66.0,IwAR0w03RrWao-7ISp3JzTqxclxvjgG7cVdB2nxuBwn_64fmYv3nnsaP-cZqs,"
    <img id = 'img_b1' width = 18% height = 32% style = 'position:absolute;top:10%;left:25%'>
    <img id = 'img_b2' width = 18% height = 32% style = 'position:absolute;top:10%;right:25%'>
    <img id = 'img_b3' width = 18% height = 32% style = 'position:absolute;bottom:10%;left:25%'>
    <img id = 'img_b4' width = 18% height = 32% style = 'position:absolute;bottom:10%;right:25%'>
    <div id = 'cum' style = 'position:absolute;top:5%;right:5%;font-size:calc(18px + 6 * ((100vw - 320px) / 680))'></div>
  ","""","""","""","""","""","""","""","""","""","2021-05-05 14:16:49",106.205.212.158,"Mozilla/5.0 (Macintosh; Intel Mac OS X 10_15_1) AppleWebKit/537.36 (KHTML, like Gecko) Chrome/90.0.4430.93 Safari/537.36",Macintosh,Chrome,90.0.4430.93,"OS X",10_15_1
51,1,null,null,html-keyboard-response,67,117306,0.0-67.0,IwAR0w03RrWao-7ISp3JzTqxclxvjgG7cVdB2nxuBwn_64fmYv3nnsaP-cZqs,"
    <img id = 'img_b1' width = 18% height = 32% style = 'position:absolute;top:10%;left:25%'>
    <img id = 'img_b2' width = 18% height = 32% style = 'position:absolute;top:10%;right:25%'>
    <img id = 'img_b3' width = 18% height = 32% style = 'position:absolute;bottom:10%;left:25%'>
    <img id = 'img_b4' width = 18% height = 32% style = 'position:absolute;bottom:10%;right:25%'>
    <div id = 'band_txt'></div>
    <div id = 'cum' style = 'position:absolute;top:5%;right:5%;font-size:calc(18px + 6 * ((100vw - 320px) / 680))'></div>
  ","""","""","""","""","""","""","""","""","""","2021-05-05 14:16:49",106.205.212.158,"Mozilla/5.0 (Macintosh; Intel Mac OS X 10_15_1) AppleWebKit/537.36 (KHTML, like Gecko) Chrome/90.0.4430.93 Safari/537.36",Macintosh,Chrome,90.0.4430.93,"OS X",10_15_1
51,1,null,null,html-keyboard-response,68,119063,0.0-68.0,IwAR0w03RrWao-7ISp3JzTqxclxvjgG7cVdB2nxuBwn_64fmYv3nnsaP-cZqs,"<div style=""font-size:60px;"">+</div>","""","""","""","""","""","""","""","""","""","2021-05-05 14:16:49",106.205.212.158,"Mozilla/5.0 (Macintosh; Intel Mac OS X 10_15_1) AppleWebKit/537.36 (KHTML, like Gecko) Chrome/90.0.4430.93 Safari/537.36",Macintosh,Chrome,90.0.4430.93,"OS X",10_15_1
51,1,284.670000008191,z,html-keyboard-response,69,119349,0.0-69.0,IwAR0w03RrWao-7ISp3JzTqxclxvjgG7cVdB2nxuBwn_64fmYv3nnsaP-cZqs,"
    <img id = 'img_b1' width = 18% height = 32% style = 'position:absolute;top:10%;left:25%'>
    <img id = 'img_b2' width = 18% height = 32% style = 'position:absolute;top:10%;right:25%'>
    <img id = 'img_b3' width = 18% height = 32% style = 'position:absolute;bottom:10%;left:25%'>
    <img id = 'img_b4' width = 18% height = 32% style = 'position:absolute;bottom:10%;right:25%'>
    <div id = 'cum' style = 'position:absolute;top:5%;right:5%;font-size:calc(18px + 6 * ((100vw - 320px) / 680))'></div>
  ","""","""","""","""","""","""","""","""","""","2021-05-05 14:16:49",106.205.212.158,"Mozilla/5.0 (Macintosh; Intel Mac OS X 10_15_1) AppleWebKit/537.36 (KHTML, like Gecko) Chrome/90.0.4430.93 Safari/537.36",Macintosh,Chrome,90.0.4430.93,"OS X",10_15_1
51,1,null,null,html-keyboard-response,70,120853,0.0-70.0,IwAR0w03RrWao-7ISp3JzTqxclxvjgG7cVdB2nxuBwn_64fmYv3nnsaP-cZqs,"
    <img id = 'img_b1' width = 18% height = 32% style = 'position:absolute;top:10%;left:25%'>
    <img id = 'img_b2' width = 18% height = 32% style = 'position:absolute;top:10%;right:25%'>
    <img id = 'img_b3' width = 18% height = 32% style = 'position:absolute;bottom:10%;left:25%'>
    <img id = 'img_b4' width = 18% height = 32% style = 'position:absolute;bottom:10%;right:25%'>
    <div id = 'band_txt'></div>
    <div id = 'cum' style = 'position:absolute;top:5%;right:5%;font-size:calc(18px + 6 * ((100vw - 320px) / 680))'></div>
  ","""","""","""","""","""","""","""","""","""","2021-05-05 14:16:49",106.205.212.158,"Mozilla/5.0 (Macintosh; Intel Mac OS X 10_15_1) AppleWebKit/537.36 (KHTML, like Gecko) Chrome/90.0.4430.93 Safari/537.36",Macintosh,Chrome,90.0.4430.93,"OS X",10_15_1
51,1,null,null,html-keyboard-response,71,122605,0.0-71.0,IwAR0w03RrWao-7ISp3JzTqxclxvjgG7cVdB2nxuBwn_64fmYv3nnsaP-cZqs,"<div style=""font-size:60px;"">+</div>","""","""","""","""","""","""","""","""","""","2021-05-05 14:16:49",106.205.212.158,"Mozilla/5.0 (Macintosh; Intel Mac OS X 10_15_1) AppleWebKit/537.36 (KHTML, like Gecko) Chrome/90.0.4430.93 Safari/537.36",Macintosh,Chrome,90.0.4430.93,"OS X",10_15_1
51,1,364.2600000021048,z,html-keyboard-response,72,122971,0.0-72.0,IwAR0w03RrWao-7ISp3JzTqxclxvjgG7cVdB2nxuBwn_64fmYv3nnsaP-cZqs,"
    <img id = 'img_b1' width = 18% height = 32% style = 'position:absolute;top:10%;left:25%'>
    <img id = 'img_b2' width = 18% height = 32% style = 'position:absolute;top:10%;right:25%'>
    <img id = 'img_b3' width = 18% height = 32% style = 'position:absolute;bottom:10%;left:25%'>
    <img id = 'img_b4' width = 18% height = 32% style = 'position:absolute;bottom:10%;right:25%'>
    <div id = 'cum' style = 'position:absolute;top:5%;right:5%;font-size:calc(18px + 6 * ((100vw - 320px) / 680))'></div>
  ","""","""","""","""","""","""","""","""","""","2021-05-05 14:16:49",106.205.212.158,"Mozilla/5.0 (Macintosh; Intel Mac OS X 10_15_1) AppleWebKit/537.36 (KHTML, like Gecko) Chrome/90.0.4430.93 Safari/537.36",Macintosh,Chrome,90.0.4430.93,"OS X",10_15_1
51,1,null,null,html-keyboard-response,73,124475,0.0-73.0,IwAR0w03RrWao-7ISp3JzTqxclxvjgG7cVdB2nxuBwn_64fmYv3nnsaP-cZqs,"
    <img id = 'img_b1' width = 18% height = 32% style = 'position:absolute;top:10%;left:25%'>
    <img id = 'img_b2' width = 18% height = 32% style = 'position:absolute;top:10%;right:25%'>
    <img id = 'img_b3' width = 18% height = 32% style = 'position:absolute;bottom:10%;left:25%'>
    <img id = 'img_b4' width = 18% height = 32% style = 'position:absolute;bottom:10%;right:25%'>
    <div id = 'band_txt'></div>
    <div id = 'cum' style = 'position:absolute;top:5%;right:5%;font-size:calc(18px + 6 * ((100vw - 320px) / 680))'></div>
  ","""","""","""","""","""","""","""","""","""","2021-05-05 14:16:49",106.205.212.158,"Mozilla/5.0 (Macintosh; Intel Mac OS X 10_15_1) AppleWebKit/537.36 (KHTML, like Gecko) Chrome/90.0.4430.93 Safari/537.36",Macintosh,Chrome,90.0.4430.93,"OS X",10_15_1
51,1,null,null,html-keyboard-response,74,125976,0.0-74.0,IwAR0w03RrWao-7ISp3JzTqxclxvjgG7cVdB2nxuBwn_64fmYv3nnsaP-cZqs,"<div style=""font-size:60px;"">+</div>","""","""","""","""","""","""","""","""","""","2021-05-05 14:16:49",106.205.212.158,"Mozilla/5.0 (Macintosh; Intel Mac OS X 10_15_1) AppleWebKit/537.36 (KHTML, like Gecko) Chrome/90.0.4430.93 Safari/537.36",Macintosh,Chrome,90.0.4430.93,"OS X",10_15_1
51,1,276.22499999415595,z,html-keyboard-response,75,126254,0.0-75.0,IwAR0w03RrWao-7ISp3JzTqxclxvjgG7cVdB2nxuBwn_64fmYv3nnsaP-cZqs,"
    <img id = 'img_b1' width = 18% height = 32% style = 'position:absolute;top:10%;left:25%'>
    <img id = 'img_b2' width = 18% height = 32% style = 'position:absolute;top:10%;right:25%'>
    <img id = 'img_b3' width = 18% height = 32% style = 'position:absolute;bottom:10%;left:25%'>
    <img id = 'img_b4' width = 18% height = 32% style = 'position:absolute;bottom:10%;right:25%'>
    <div id = 'cum' style = 'position:absolute;top:5%;right:5%;font-size:calc(18px + 6 * ((100vw - 320px) / 680))'></div>
  ","""","""","""","""","""","""","""","""","""","2021-05-05 14:16:49",106.205.212.158,"Mozilla/5.0 (Macintosh; Intel Mac OS X 10_15_1) AppleWebKit/537.36 (KHTML, like Gecko) Chrome/90.0.4430.93 Safari/537.36",Macintosh,Chrome,90.0.4430.93,"OS X",10_15_1
51,1,null,null,html-keyboard-response,76,127755,0.0-76.0,IwAR0w03RrWao-7ISp3JzTqxclxvjgG7cVdB2nxuBwn_64fmYv3nnsaP-cZqs,"
    <img id = 'img_b1' width = 18% height = 32% style = 'position:absolute;top:10%;left:25%'>
    <img id = 'img_b2' width = 18% height = 32% style = 'position:absolute;top:10%;right:25%'>
    <img id = 'img_b3' width = 18% height = 32% style = 'position:absolute;bottom:10%;left:25%'>
    <img id = 'img_b4' width = 18% height = 32% style = 'position:absolute;bottom:10%;right:25%'>
    <div id = 'band_txt'></div>
    <div id = 'cum' style = 'position:absolute;top:5%;right:5%;font-size:calc(18px + 6 * ((100vw - 320px) / 680))'></div>
  ","""","""","""","""","""","""","""","""","""","2021-05-05 14:16:49",106.205.212.158,"Mozilla/5.0 (Macintosh; Intel Mac OS X 10_15_1) AppleWebKit/537.36 (KHTML, like Gecko) Chrome/90.0.4430.93 Safari/537.36",Macintosh,Chrome,90.0.4430.93,"OS X",10_15_1
51,1,null,null,html-keyboard-response,77,128510,0.0-77.0,IwAR0w03RrWao-7ISp3JzTqxclxvjgG7cVdB2nxuBwn_64fmYv3nnsaP-cZqs,"<div style=""font-size:60px;"">+</div>","""","""","""","""","""","""","""","""","""","2021-05-05 14:16:49",106.205.212.158,"Mozilla/5.0 (Macintosh; Intel Mac OS X 10_15_1) AppleWebKit/537.36 (KHTML, like Gecko) Chrome/90.0.4430.93 Safari/537.36",Macintosh,Chrome,90.0.4430.93,"OS X",10_15_1
51,1,499.06499999633525,p,html-keyboard-response,78,129016,0.0-78.0,IwAR0w03RrWao-7ISp3JzTqxclxvjgG7cVdB2nxuBwn_64fmYv3nnsaP-cZqs,"
    <img id = 'img_b1' width = 18% height = 32% style = 'position:absolute;top:10%;left:25%'>
    <img id = 'img_b2' width = 18% height = 32% style = 'position:absolute;top:10%;right:25%'>
    <img id = 'img_b3' width = 18% height = 32% style = 'position:absolute;bottom:10%;left:25%'>
    <img id = 'img_b4' width = 18% height = 32% style = 'position:absolute;bottom:10%;right:25%'>
    <div id = 'cum' style = 'position:absolute;top:5%;right:5%;font-size:calc(18px + 6 * ((100vw - 320px) / 680))'></div>
  ","""","""","""","""","""","""","""","""","""","2021-05-05 14:16:49",106.205.212.158,"Mozilla/5.0 (Macintosh; Intel Mac OS X 10_15_1) AppleWebKit/537.36 (KHTML, like Gecko) Chrome/90.0.4430.93 Safari/537.36",Macintosh,Chrome,90.0.4430.93,"OS X",10_15_1
51,1,null,null,html-keyboard-response,79,130518,0.0-79.0,IwAR0w03RrWao-7ISp3JzTqxclxvjgG7cVdB2nxuBwn_64fmYv3nnsaP-cZqs,"
    <img id = 'img_b1' width = 18% height = 32% style = 'position:absolute;top:10%;left:25%'>
    <img id = 'img_b2' width = 18% height = 32% style = 'position:absolute;top:10%;right:25%'>
    <img id = 'img_b3' width = 18% height = 32% style = 'position:absolute;bottom:10%;left:25%'>
    <img id = 'img_b4' width = 18% height = 32% style = 'position:absolute;bottom:10%;right:25%'>
    <div id = 'band_txt'></div>
    <div id = 'cum' style = 'position:absolute;top:5%;right:5%;font-size:calc(18px + 6 * ((100vw - 320px) / 680))'></div>
  ","""","""","""","""","""","""","""","""","""","2021-05-05 14:16:49",106.205.212.158,"Mozilla/5.0 (Macintosh; Intel Mac OS X 10_15_1) AppleWebKit/537.36 (KHTML, like Gecko) Chrome/90.0.4430.93 Safari/537.36",Macintosh,Chrome,90.0.4430.93,"OS X",10_15_1
51,1,null,null,html-keyboard-response,80,132272,0.0-80.0,IwAR0w03RrWao-7ISp3JzTqxclxvjgG7cVdB2nxuBwn_64fmYv3nnsaP-cZqs,"<div style=""font-size:60px;"">+</div>","""","""","""","""","""","""","""","""","""","2021-05-05 14:16:49",106.205.212.158,"Mozilla/5.0 (Macintosh; Intel Mac OS X 10_15_1) AppleWebKit/537.36 (KHTML, like Gecko) Chrome/90.0.4430.93 Safari/537.36",Macintosh,Chrome,90.0.4430.93,"OS X",10_15_1
51,1,263.61500000348315,z,html-keyboard-response,81,132536,0.0-81.0,IwAR0w03RrWao-7ISp3JzTqxclxvjgG7cVdB2nxuBwn_64fmYv3nnsaP-cZqs,"
    <img id = 'img_b1' width = 18% height = 32% style = 'position:absolute;top:10%;left:25%'>
    <img id = 'img_b2' width = 18% height = 32% style = 'position:absolute;top:10%;right:25%'>
    <img id = 'img_b3' width = 18% height = 32% style = 'position:absolute;bottom:10%;left:25%'>
    <img id = 'img_b4' width = 18% height = 32% style = 'position:absolute;bottom:10%;right:25%'>
    <div id = 'cum' style = 'position:absolute;top:5%;right:5%;font-size:calc(18px + 6 * ((100vw - 320px) / 680))'></div>
  ","""","""","""","""","""","""","""","""","""","2021-05-05 14:16:49",106.205.212.158,"Mozilla/5.0 (Macintosh; Intel Mac OS X 10_15_1) AppleWebKit/537.36 (KHTML, like Gecko) Chrome/90.0.4430.93 Safari/537.36",Macintosh,Chrome,90.0.4430.93,"OS X",10_15_1
51,1,null,null,html-keyboard-response,82,134042,0.0-82.0,IwAR0w03RrWao-7ISp3JzTqxclxvjgG7cVdB2nxuBwn_64fmYv3nnsaP-cZqs,"
    <img id = 'img_b1' width = 18% height = 32% style = 'position:absolute;top:10%;left:25%'>
    <img id = 'img_b2' width = 18% height = 32% style = 'position:absolute;top:10%;right:25%'>
    <img id = 'img_b3' width = 18% height = 32% style = 'position:absolute;bottom:10%;left:25%'>
    <img id = 'img_b4' width = 18% height = 32% style = 'position:absolute;bottom:10%;right:25%'>
    <div id = 'band_txt'></div>
    <div id = 'cum' style = 'position:absolute;top:5%;right:5%;font-size:calc(18px + 6 * ((100vw - 320px) / 680))'></div>
  ","""","""","""","""","""","""","""","""","""","2021-05-05 14:16:49",106.205.212.158,"Mozilla/5.0 (Macintosh; Intel Mac OS X 10_15_1) AppleWebKit/537.36 (KHTML, like Gecko) Chrome/90.0.4430.93 Safari/537.36",Macintosh,Chrome,90.0.4430.93,"OS X",10_15_1
51,1,null,null,html-keyboard-response,83,135801,0.0-83.0,IwAR0w03RrWao-7ISp3JzTqxclxvjgG7cVdB2nxuBwn_64fmYv3nnsaP-cZqs,"<div style=""font-size:60px;"">+</div>","""","""","""","""","""","""","""","""","""","2021-05-05 14:16:49",106.205.212.158,"Mozilla/5.0 (Macintosh; Intel Mac OS X 10_15_1) AppleWebKit/537.36 (KHTML, like Gecko) Chrome/90.0.4430.93 Safari/537.36",Macintosh,Chrome,90.0.4430.93,"OS X",10_15_1
51,1,297.3749999946449,z,html-keyboard-response,84,136100,0.0-84.0,IwAR0w03RrWao-7ISp3JzTqxclxvjgG7cVdB2nxuBwn_64fmYv3nnsaP-cZqs,"
    <img id = 'img_b1' width = 18% height = 32% style = 'position:absolute;top:10%;left:25%'>
    <img id = 'img_b2' width = 18% height = 32% style = 'position:absolute;top:10%;right:25%'>
    <img id = 'img_b3' width = 18% height = 32% style = 'position:absolute;bottom:10%;left:25%'>
    <img id = 'img_b4' width = 18% height = 32% style = 'position:absolute;bottom:10%;right:25%'>
    <div id = 'cum' style = 'position:absolute;top:5%;right:5%;font-size:calc(18px + 6 * ((100vw - 320px) / 680))'></div>
  ","""","""","""","""","""","""","""","""","""","2021-05-05 14:16:49",106.205.212.158,"Mozilla/5.0 (Macintosh; Intel Mac OS X 10_15_1) AppleWebKit/537.36 (KHTML, like Gecko) Chrome/90.0.4430.93 Safari/537.36",Macintosh,Chrome,90.0.4430.93,"OS X",10_15_1
51,1,null,null,html-keyboard-response,85,137607,0.0-85.0,IwAR0w03RrWao-7ISp3JzTqxclxvjgG7cVdB2nxuBwn_64fmYv3nnsaP-cZqs,"
    <img id = 'img_b1' width = 18% height = 32% style = 'position:absolute;top:10%;left:25%'>
    <img id = 'img_b2' width = 18% height = 32% style = 'position:absolute;top:10%;right:25%'>
    <img id = 'img_b3' width = 18% height = 32% style = 'position:absolute;bottom:10%;left:25%'>
    <img id = 'img_b4' width = 18% height = 32% style = 'position:absolute;bottom:10%;right:25%'>
    <div id = 'band_txt'></div>
    <div id = 'cum' style = 'position:absolute;top:5%;right:5%;font-size:calc(18px + 6 * ((100vw - 320px) / 680))'></div>
  ","""","""","""","""","""","""","""","""","""","2021-05-05 14:16:49",106.205.212.158,"Mozilla/5.0 (Macintosh; Intel Mac OS X 10_15_1) AppleWebKit/537.36 (KHTML, like Gecko) Chrome/90.0.4430.93 Safari/537.36",Macintosh,Chrome,90.0.4430.93,"OS X",10_15_1
51,1,null,null,html-keyboard-response,86,139112,0.0-86.0,IwAR0w03RrWao-7ISp3JzTqxclxvjgG7cVdB2nxuBwn_64fmYv3nnsaP-cZqs,"<div style=""font-size:60px;"">+</div>","""","""","""","""","""","""","""","""","""","2021-05-05 14:16:49",106.205.212.158,"Mozilla/5.0 (Macintosh; Intel Mac OS X 10_15_1) AppleWebKit/537.36 (KHTML, like Gecko) Chrome/90.0.4430.93 Safari/537.36",Macintosh,Chrome,90.0.4430.93,"OS X",10_15_1
51,1,280.29500000411645,z,html-keyboard-response,87,139393,0.0-87.0,IwAR0w03RrWao-7ISp3JzTqxclxvjgG7cVdB2nxuBwn_64fmYv3nnsaP-cZqs,"
    <img id = 'img_b1' width = 18% height = 32% style = 'position:absolute;top:10%;left:25%'>
    <img id = 'img_b2' width = 18% height = 32% style = 'position:absolute;top:10%;right:25%'>
    <img id = 'img_b3' width = 18% height = 32% style = 'position:absolute;bottom:10%;left:25%'>
    <img id = 'img_b4' width = 18% height = 32% style = 'position:absolute;bottom:10%;right:25%'>
    <div id = 'cum' style = 'position:absolute;top:5%;right:5%;font-size:calc(18px + 6 * ((100vw - 320px) / 680))'></div>
  ","""","""","""","""","""","""","""","""","""","2021-05-05 14:16:49",106.205.212.158,"Mozilla/5.0 (Macintosh; Intel Mac OS X 10_15_1) AppleWebKit/537.36 (KHTML, like Gecko) Chrome/90.0.4430.93 Safari/537.36",Macintosh,Chrome,90.0.4430.93,"OS X",10_15_1
51,1,null,null,html-keyboard-response,88,140898,0.0-88.0,IwAR0w03RrWao-7ISp3JzTqxclxvjgG7cVdB2nxuBwn_64fmYv3nnsaP-cZqs,"
    <img id = 'img_b1' width = 18% height = 32% style = 'position:absolute;top:10%;left:25%'>
    <img id = 'img_b2' width = 18% height = 32% style = 'position:absolute;top:10%;right:25%'>
    <img id = 'img_b3' width = 18% height = 32% style = 'position:absolute;bottom:10%;left:25%'>
    <img id = 'img_b4' width = 18% height = 32% style = 'position:absolute;bottom:10%;right:25%'>
    <div id = 'band_txt'></div>
    <div id = 'cum' style = 'position:absolute;top:5%;right:5%;font-size:calc(18px + 6 * ((100vw - 320px) / 680))'></div>
  ","""","""","""","""","""","""","""","""","""","2021-05-05 14:16:49",106.205.212.158,"Mozilla/5.0 (Macintosh; Intel Mac OS X 10_15_1) AppleWebKit/537.36 (KHTML, like Gecko) Chrome/90.0.4430.93 Safari/537.36",Macintosh,Chrome,90.0.4430.93,"OS X",10_15_1
51,1,null,null,html-keyboard-response,89,142408,0.0-89.0,IwAR0w03RrWao-7ISp3JzTqxclxvjgG7cVdB2nxuBwn_64fmYv3nnsaP-cZqs,"<div style=""font-size:60px;"">+</div>","""","""","""","""","""","""","""","""","""","2021-05-05 14:16:49",106.205.212.158,"Mozilla/5.0 (Macintosh; Intel Mac OS X 10_15_1) AppleWebKit/537.36 (KHTML, like Gecko) Chrome/90.0.4430.93 Safari/537.36",Macintosh,Chrome,90.0.4430.93,"OS X",10_15_1
51,1,339.6999999968102,z,html-keyboard-response,90,142749,0.0-90.0,IwAR0w03RrWao-7ISp3JzTqxclxvjgG7cVdB2nxuBwn_64fmYv3nnsaP-cZqs,"
    <img id = 'img_b1' width = 18% height = 32% style = 'position:absolute;top:10%;left:25%'>
    <img id = 'img_b2' width = 18% height = 32% style = 'position:absolute;top:10%;right:25%'>
    <img id = 'img_b3' width = 18% height = 32% style = 'position:absolute;bottom:10%;left:25%'>
    <img id = 'img_b4' width = 18% height = 32% style = 'position:absolute;bottom:10%;right:25%'>
    <div id = 'cum' style = 'position:absolute;top:5%;right:5%;font-size:calc(18px + 6 * ((100vw - 320px) / 680))'></div>
  ","""","""","""","""","""","""","""","""","""","2021-05-05 14:16:49",106.205.212.158,"Mozilla/5.0 (Macintosh; Intel Mac OS X 10_15_1) AppleWebKit/537.36 (KHTML, like Gecko) Chrome/90.0.4430.93 Safari/537.36",Macintosh,Chrome,90.0.4430.93,"OS X",10_15_1
51,1,null,null,html-keyboard-response,91,144253,0.0-91.0,IwAR0w03RrWao-7ISp3JzTqxclxvjgG7cVdB2nxuBwn_64fmYv3nnsaP-cZqs,"
    <img id = 'img_b1' width = 18% height = 32% style = 'position:absolute;top:10%;left:25%'>
    <img id = 'img_b2' width = 18% height = 32% style = 'position:absolute;top:10%;right:25%'>
    <img id = 'img_b3' width = 18% height = 32% style = 'position:absolute;bottom:10%;left:25%'>
    <img id = 'img_b4' width = 18% height = 32% style = 'position:absolute;bottom:10%;right:25%'>
    <div id = 'band_txt'></div>
    <div id = 'cum' style = 'position:absolute;top:5%;right:5%;font-size:calc(18px + 6 * ((100vw - 320px) / 680))'></div>
  ","""","""","""","""","""","""","""","""","""","2021-05-05 14:16:49",106.205.212.158,"Mozilla/5.0 (Macintosh; Intel Mac OS X 10_15_1) AppleWebKit/537.36 (KHTML, like Gecko) Chrome/90.0.4430.93 Safari/537.36",Macintosh,Chrome,90.0.4430.93,"OS X",10_15_1
51,1,null,null,html-keyboard-response,92,146006,0.0-92.0,IwAR0w03RrWao-7ISp3JzTqxclxvjgG7cVdB2nxuBwn_64fmYv3nnsaP-cZqs,"<div style=""font-size:60px;"">+</div>","""","""","""","""","""","""","""","""","""","2021-05-05 14:16:49",106.205.212.158,"Mozilla/5.0 (Macintosh; Intel Mac OS X 10_15_1) AppleWebKit/537.36 (KHTML, like Gecko) Chrome/90.0.4430.93 Safari/537.36",Macintosh,Chrome,90.0.4430.93,"OS X",10_15_1
51,1,276.11500000057276,z,html-keyboard-response,93,146283,0.0-93.0,IwAR0w03RrWao-7ISp3JzTqxclxvjgG7cVdB2nxuBwn_64fmYv3nnsaP-cZqs,"
    <img id = 'img_b1' width = 18% height = 32% style = 'position:absolute;top:10%;left:25%'>
    <img id = 'img_b2' width = 18% height = 32% style = 'position:absolute;top:10%;right:25%'>
    <img id = 'img_b3' width = 18% height = 32% style = 'position:absolute;bottom:10%;left:25%'>
    <img id = 'img_b4' width = 18% height = 32% style = 'position:absolute;bottom:10%;right:25%'>
    <div id = 'cum' style = 'position:absolute;top:5%;right:5%;font-size:calc(18px + 6 * ((100vw - 320px) / 680))'></div>
  ","""","""","""","""","""","""","""","""","""","2021-05-05 14:16:49",106.205.212.158,"Mozilla/5.0 (Macintosh; Intel Mac OS X 10_15_1) AppleWebKit/537.36 (KHTML, like Gecko) Chrome/90.0.4430.93 Safari/537.36",Macintosh,Chrome,90.0.4430.93,"OS X",10_15_1
51,1,null,null,html-keyboard-response,94,147789,0.0-94.0,IwAR0w03RrWao-7ISp3JzTqxclxvjgG7cVdB2nxuBwn_64fmYv3nnsaP-cZqs,"
    <img id = 'img_b1' width = 18% height = 32% style = 'position:absolute;top:10%;left:25%'>
    <img id = 'img_b2' width = 18% height = 32% style = 'position:absolute;top:10%;right:25%'>
    <img id = 'img_b3' width = 18% height = 32% style = 'position:absolute;bottom:10%;left:25%'>
    <img id = 'img_b4' width = 18% height = 32% style = 'position:absolute;bottom:10%;right:25%'>
    <div id = 'band_txt'></div>
    <div id = 'cum' style = 'position:absolute;top:5%;right:5%;font-size:calc(18px + 6 * ((100vw - 320px) / 680))'></div>
  ","""","""","""","""","""","""","""","""","""","2021-05-05 14:16:49",106.205.212.158,"Mozilla/5.0 (Macintosh; Intel Mac OS X 10_15_1) AppleWebKit/537.36 (KHTML, like Gecko) Chrome/90.0.4430.93 Safari/537.36",Macintosh,Chrome,90.0.4430.93,"OS X",10_15_1
51,1,null,null,html-keyboard-response,95,149048,0.0-95.0,IwAR0w03RrWao-7ISp3JzTqxclxvjgG7cVdB2nxuBwn_64fmYv3nnsaP-cZqs,"<div style=""font-size:60px;"">+</div>","""","""","""","""","""","""","""","""","""","2021-05-05 14:16:49",106.205.212.158,"Mozilla/5.0 (Macintosh; Intel Mac OS X 10_15_1) AppleWebKit/537.36 (KHTML, like Gecko) Chrome/90.0.4430.93 Safari/537.36",Macintosh,Chrome,90.0.4430.93,"OS X",10_15_1
51,1,244.76999999023974,z,html-keyboard-response,96,149294,0.0-96.0,IwAR0w03RrWao-7ISp3JzTqxclxvjgG7cVdB2nxuBwn_64fmYv3nnsaP-cZqs,"
    <img id = 'img_b1' width = 18% height = 32% style = 'position:absolute;top:10%;left:25%'>
    <img id = 'img_b2' width = 18% height = 32% style = 'position:absolute;top:10%;right:25%'>
    <img id = 'img_b3' width = 18% height = 32% style = 'position:absolute;bottom:10%;left:25%'>
    <img id = 'img_b4' width = 18% height = 32% style = 'position:absolute;bottom:10%;right:25%'>
    <div id = 'cum' style = 'position:absolute;top:5%;right:5%;font-size:calc(18px + 6 * ((100vw - 320px) / 680))'></div>
  ","""","""","""","""","""","""","""","""","""","2021-05-05 14:16:49",106.205.212.158,"Mozilla/5.0 (Macintosh; Intel Mac OS X 10_15_1) AppleWebKit/537.36 (KHTML, like Gecko) Chrome/90.0.4430.93 Safari/537.36",Macintosh,Chrome,90.0.4430.93,"OS X",10_15_1
51,1,null,null,html-keyboard-response,97,150801,0.0-97.0,IwAR0w03RrWao-7ISp3JzTqxclxvjgG7cVdB2nxuBwn_64fmYv3nnsaP-cZqs,"
    <img id = 'img_b1' width = 18% height = 32% style = 'position:absolute;top:10%;left:25%'>
    <img id = 'img_b2' width = 18% height = 32% style = 'position:absolute;top:10%;right:25%'>
    <img id = 'img_b3' width = 18% height = 32% style = 'position:absolute;bottom:10%;left:25%'>
    <img id = 'img_b4' width = 18% height = 32% style = 'position:absolute;bottom:10%;right:25%'>
    <div id = 'band_txt'></div>
    <div id = 'cum' style = 'position:absolute;top:5%;right:5%;font-size:calc(18px + 6 * ((100vw - 320px) / 680))'></div>
  ","""","""","""","""","""","""","""","""","""","2021-05-05 14:16:49",106.205.212.158,"Mozilla/5.0 (Macintosh; Intel Mac OS X 10_15_1) AppleWebKit/537.36 (KHTML, like Gecko) Chrome/90.0.4430.93 Safari/537.36",Macintosh,Chrome,90.0.4430.93,"OS X",10_15_1
51,1,null,null,html-keyboard-response,98,152305,0.0-98.0,IwAR0w03RrWao-7ISp3JzTqxclxvjgG7cVdB2nxuBwn_64fmYv3nnsaP-cZqs,"<div style=""font-size:60px;"">+</div>","""","""","""","""","""","""","""","""","""","2021-05-05 14:16:49",106.205.212.158,"Mozilla/5.0 (Macintosh; Intel Mac OS X 10_15_1) AppleWebKit/537.36 (KHTML, like Gecko) Chrome/90.0.4430.93 Safari/537.36",Macintosh,Chrome,90.0.4430.93,"OS X",10_15_1
51,1,1398.975000003702,m,html-keyboard-response,99,153705,0.0-99.0,IwAR0w03RrWao-7ISp3JzTqxclxvjgG7cVdB2nxuBwn_64fmYv3nnsaP-cZqs,"
    <img id = 'img_b1' width = 18% height = 32% style = 'position:absolute;top:10%;left:25%'>
    <img id = 'img_b2' width = 18% height = 32% style = 'position:absolute;top:10%;right:25%'>
    <img id = 'img_b3' width = 18% height = 32% style = 'position:absolute;bottom:10%;left:25%'>
    <img id = 'img_b4' width = 18% height = 32% style = 'position:absolute;bottom:10%;right:25%'>
    <div id = 'cum' style = 'position:absolute;top:5%;right:5%;font-size:calc(18px + 6 * ((100vw - 320px) / 680))'></div>
  ","""","""","""","""","""","""","""","""","""","2021-05-05 14:16:49",106.205.212.158,"Mozilla/5.0 (Macintosh; Intel Mac OS X 10_15_1) AppleWebKit/537.36 (KHTML, like Gecko) Chrome/90.0.4430.93 Safari/537.36",Macintosh,Chrome,90.0.4430.93,"OS X",10_15_1
51,1,null,null,html-keyboard-response,100,155208,0.0-100.0,IwAR0w03RrWao-7ISp3JzTqxclxvjgG7cVdB2nxuBwn_64fmYv3nnsaP-cZqs,"
    <img id = 'img_b1' width = 18% height = 32% style = 'position:absolute;top:10%;left:25%'>
    <img id = 'img_b2' width = 18% height = 32% style = 'position:absolute;top:10%;right:25%'>
    <img id = 'img_b3' width = 18% height = 32% style = 'position:absolute;bottom:10%;left:25%'>
    <img id = 'img_b4' width = 18% height = 32% style = 'position:absolute;bottom:10%;right:25%'>
    <div id = 'band_txt'></div>
    <div id = 'cum' style = 'position:absolute;top:5%;right:5%;font-size:calc(18px + 6 * ((100vw - 320px) / 680))'></div>
  ","""","""","""","""","""","""","""","""","""","2021-05-05 14:16:49",106.205.212.158,"Mozilla/5.0 (Macintosh; Intel Mac OS X 10_15_1) AppleWebKit/537.36 (KHTML, like Gecko) Chrome/90.0.4430.93 Safari/537.36",Macintosh,Chrome,90.0.4430.93,"OS X",10_15_1
51,1,null,null,html-keyboard-response,101,156964,0.0-101.0,IwAR0w03RrWao-7ISp3JzTqxclxvjgG7cVdB2nxuBwn_64fmYv3nnsaP-cZqs,"<div style=""font-size:60px;"">+</div>","""","""","""","""","""","""","""","""","""","2021-05-05 14:16:49",106.205.212.158,"Mozilla/5.0 (Macintosh; Intel Mac OS X 10_15_1) AppleWebKit/537.36 (KHTML, like Gecko) Chrome/90.0.4430.93 Safari/537.36",Macintosh,Chrome,90.0.4430.93,"OS X",10_15_1
51,1,290.27499999210704,z,html-keyboard-response,102,157259,0.0-102.0,IwAR0w03RrWao-7ISp3JzTqxclxvjgG7cVdB2nxuBwn_64fmYv3nnsaP-cZqs,"
    <img id = 'img_b1' width = 18% height = 32% style = 'position:absolute;top:10%;left:25%'>
    <img id = 'img_b2' width = 18% height = 32% style = 'position:absolute;top:10%;right:25%'>
    <img id = 'img_b3' width = 18% height = 32% style = 'position:absolute;bottom:10%;left:25%'>
    <img id = 'img_b4' width = 18% height = 32% style = 'position:absolute;bottom:10%;right:25%'>
    <div id = 'cum' style = 'position:absolute;top:5%;right:5%;font-size:calc(18px + 6 * ((100vw - 320px) / 680))'></div>
  ","""","""","""","""","""","""","""","""","""","2021-05-05 14:16:49",106.205.212.158,"Mozilla/5.0 (Macintosh; Intel Mac OS X 10_15_1) AppleWebKit/537.36 (KHTML, like Gecko) Chrome/90.0.4430.93 Safari/537.36",Macintosh,Chrome,90.0.4430.93,"OS X",10_15_1
51,1,null,null,html-keyboard-response,103,158761,0.0-103.0,IwAR0w03RrWao-7ISp3JzTqxclxvjgG7cVdB2nxuBwn_64fmYv3nnsaP-cZqs,"
    <img id = 'img_b1' width = 18% height = 32% style = 'position:absolute;top:10%;left:25%'>
    <img id = 'img_b2' width = 18% height = 32% style = 'position:absolute;top:10%;right:25%'>
    <img id = 'img_b3' width = 18% height = 32% style = 'position:absolute;bottom:10%;left:25%'>
    <img id = 'img_b4' width = 18% height = 32% style = 'position:absolute;bottom:10%;right:25%'>
    <div id = 'band_txt'></div>
    <div id = 'cum' style = 'position:absolute;top:5%;right:5%;font-size:calc(18px + 6 * ((100vw - 320px) / 680))'></div>
  ","""","""","""","""","""","""","""","""","""","2021-05-05 14:16:49",106.205.212.158,"Mozilla/5.0 (Macintosh; Intel Mac OS X 10_15_1) AppleWebKit/537.36 (KHTML, like Gecko) Chrome/90.0.4430.93 Safari/537.36",Macintosh,Chrome,90.0.4430.93,"OS X",10_15_1
51,1,null,null,html-keyboard-response,104,160264,0.0-104.0,IwAR0w03RrWao-7ISp3JzTqxclxvjgG7cVdB2nxuBwn_64fmYv3nnsaP-cZqs,"<div style=""font-size:60px;"">+</div>","""","""","""","""","""","""","""","""","""","2021-05-05 14:16:49",106.205.212.158,"Mozilla/5.0 (Macintosh; Intel Mac OS X 10_15_1) AppleWebKit/537.36 (KHTML, like Gecko) Chrome/90.0.4430.93 Safari/537.36",Macintosh,Chrome,90.0.4430.93,"OS X",10_15_1
51,1,347.76000000420026,z,html-keyboard-response,105,160613,0.0-105.0,IwAR0w03RrWao-7ISp3JzTqxclxvjgG7cVdB2nxuBwn_64fmYv3nnsaP-cZqs,"
    <img id = 'img_b1' width = 18% height = 32% style = 'position:absolute;top:10%;left:25%'>
    <img id = 'img_b2' width = 18% height = 32% style = 'position:absolute;top:10%;right:25%'>
    <img id = 'img_b3' width = 18% height = 32% style = 'position:absolute;bottom:10%;left:25%'>
    <img id = 'img_b4' width = 18% height = 32% style = 'position:absolute;bottom:10%;right:25%'>
    <div id = 'cum' style = 'position:absolute;top:5%;right:5%;font-size:calc(18px + 6 * ((100vw - 320px) / 680))'></div>
  ","""","""","""","""","""","""","""","""","""","2021-05-05 14:16:49",106.205.212.158,"Mozilla/5.0 (Macintosh; Intel Mac OS X 10_15_1) AppleWebKit/537.36 (KHTML, like Gecko) Chrome/90.0.4430.93 Safari/537.36",Macintosh,Chrome,90.0.4430.93,"OS X",10_15_1
51,1,null,null,html-keyboard-response,106,162116,0.0-106.0,IwAR0w03RrWao-7ISp3JzTqxclxvjgG7cVdB2nxuBwn_64fmYv3nnsaP-cZqs,"
    <img id = 'img_b1' width = 18% height = 32% style = 'position:absolute;top:10%;left:25%'>
    <img id = 'img_b2' width = 18% height = 32% style = 'position:absolute;top:10%;right:25%'>
    <img id = 'img_b3' width = 18% height = 32% style = 'position:absolute;bottom:10%;left:25%'>
    <img id = 'img_b4' width = 18% height = 32% style = 'position:absolute;bottom:10%;right:25%'>
    <div id = 'band_txt'></div>
    <div id = 'cum' style = 'position:absolute;top:5%;right:5%;font-size:calc(18px + 6 * ((100vw - 320px) / 680))'></div>
  ","""","""","""","""","""","""","""","""","""","2021-05-05 14:16:49",106.205.212.158,"Mozilla/5.0 (Macintosh; Intel Mac OS X 10_15_1) AppleWebKit/537.36 (KHTML, like Gecko) Chrome/90.0.4430.93 Safari/537.36",Macintosh,Chrome,90.0.4430.93,"OS X",10_15_1
51,1,null,null,html-keyboard-response,107,163619,0.0-107.0,IwAR0w03RrWao-7ISp3JzTqxclxvjgG7cVdB2nxuBwn_64fmYv3nnsaP-cZqs,"<div style=""font-size:60px;"">+</div>","""","""","""","""","""","""","""","""","""","2021-05-05 14:16:49",106.205.212.158,"Mozilla/5.0 (Macintosh; Intel Mac OS X 10_15_1) AppleWebKit/537.36 (KHTML, like Gecko) Chrome/90.0.4430.93 Safari/537.36",Macintosh,Chrome,90.0.4430.93,"OS X",10_15_1
51,1,153.28499999304768,z,html-keyboard-response,108,163774,0.0-108.0,IwAR0w03RrWao-7ISp3JzTqxclxvjgG7cVdB2nxuBwn_64fmYv3nnsaP-cZqs,"
    <img id = 'img_b1' width = 18% height = 32% style = 'position:absolute;top:10%;left:25%'>
    <img id = 'img_b2' width = 18% height = 32% style = 'position:absolute;top:10%;right:25%'>
    <img id = 'img_b3' width = 18% height = 32% style = 'position:absolute;bottom:10%;left:25%'>
    <img id = 'img_b4' width = 18% height = 32% style = 'position:absolute;bottom:10%;right:25%'>
    <div id = 'cum' style = 'position:absolute;top:5%;right:5%;font-size:calc(18px + 6 * ((100vw - 320px) / 680))'></div>
  ","""","""","""","""","""","""","""","""","""","2021-05-05 14:16:49",106.205.212.158,"Mozilla/5.0 (Macintosh; Intel Mac OS X 10_15_1) AppleWebKit/537.36 (KHTML, like Gecko) Chrome/90.0.4430.93 Safari/537.36",Macintosh,Chrome,90.0.4430.93,"OS X",10_15_1
51,1,null,null,html-keyboard-response,109,165280,0.0-109.0,IwAR0w03RrWao-7ISp3JzTqxclxvjgG7cVdB2nxuBwn_64fmYv3nnsaP-cZqs,"
    <img id = 'img_b1' width = 18% height = 32% style = 'position:absolute;top:10%;left:25%'>
    <img id = 'img_b2' width = 18% height = 32% style = 'position:absolute;top:10%;right:25%'>
    <img id = 'img_b3' width = 18% height = 32% style = 'position:absolute;bottom:10%;left:25%'>
    <img id = 'img_b4' width = 18% height = 32% style = 'position:absolute;bottom:10%;right:25%'>
    <div id = 'band_txt'></div>
    <div id = 'cum' style = 'position:absolute;top:5%;right:5%;font-size:calc(18px + 6 * ((100vw - 320px) / 680))'></div>
  ","""","""","""","""","""","""","""","""","""","2021-05-05 14:16:49",106.205.212.158,"Mozilla/5.0 (Macintosh; Intel Mac OS X 10_15_1) AppleWebKit/537.36 (KHTML, like Gecko) Chrome/90.0.4430.93 Safari/537.36",Macintosh,Chrome,90.0.4430.93,"OS X",10_15_1
51,1,null,null,html-keyboard-response,110,167033,0.0-110.0,IwAR0w03RrWao-7ISp3JzTqxclxvjgG7cVdB2nxuBwn_64fmYv3nnsaP-cZqs,"<div style=""font-size:60px;"">+</div>","""","""","""","""","""","""","""","""","""","2021-05-05 14:16:49",106.205.212.158,"Mozilla/5.0 (Macintosh; Intel Mac OS X 10_15_1) AppleWebKit/537.36 (KHTML, like Gecko) Chrome/90.0.4430.93 Safari/537.36",Macintosh,Chrome,90.0.4430.93,"OS X",10_15_1
51,1,38.31000000354834,z,html-keyboard-response,111,167077,0.0-111.0,IwAR0w03RrWao-7ISp3JzTqxclxvjgG7cVdB2nxuBwn_64fmYv3nnsaP-cZqs,"
    <img id = 'img_b1' width = 18% height = 32% style = 'position:absolute;top:10%;left:25%'>
    <img id = 'img_b2' width = 18% height = 32% style = 'position:absolute;top:10%;right:25%'>
    <img id = 'img_b3' width = 18% height = 32% style = 'position:absolute;bottom:10%;left:25%'>
    <img id = 'img_b4' width = 18% height = 32% style = 'position:absolute;bottom:10%;right:25%'>
    <div id = 'cum' style = 'position:absolute;top:5%;right:5%;font-size:calc(18px + 6 * ((100vw - 320px) / 680))'></div>
  ","""","""","""","""","""","""","""","""","""","2021-05-05 14:16:49",106.205.212.158,"Mozilla/5.0 (Macintosh; Intel Mac OS X 10_15_1) AppleWebKit/537.36 (KHTML, like Gecko) Chrome/90.0.4430.93 Safari/537.36",Macintosh,Chrome,90.0.4430.93,"OS X",10_15_1
51,1,null,null,html-keyboard-response,112,168583,0.0-112.0,IwAR0w03RrWao-7ISp3JzTqxclxvjgG7cVdB2nxuBwn_64fmYv3nnsaP-cZqs,"
    <img id = 'img_b1' width = 18% height = 32% style = 'position:absolute;top:10%;left:25%'>
    <img id = 'img_b2' width = 18% height = 32% style = 'position:absolute;top:10%;right:25%'>
    <img id = 'img_b3' width = 18% height = 32% style = 'position:absolute;bottom:10%;left:25%'>
    <img id = 'img_b4' width = 18% height = 32% style = 'position:absolute;bottom:10%;right:25%'>
    <div id = 'band_txt'></div>
    <div id = 'cum' style = 'position:absolute;top:5%;right:5%;font-size:calc(18px + 6 * ((100vw - 320px) / 680))'></div>
  ","""","""","""","""","""","""","""","""","""","2021-05-05 14:16:49",106.205.212.158,"Mozilla/5.0 (Macintosh; Intel Mac OS X 10_15_1) AppleWebKit/537.36 (KHTML, like Gecko) Chrome/90.0.4430.93 Safari/537.36",Macintosh,Chrome,90.0.4430.93,"OS X",10_15_1
51,1,null,null,html-keyboard-response,113,170086,0.0-113.0,IwAR0w03RrWao-7ISp3JzTqxclxvjgG7cVdB2nxuBwn_64fmYv3nnsaP-cZqs,"<div style=""font-size:60px;"">+</div>","""","""","""","""","""","""","""","""","""","2021-05-05 14:16:49",106.205.212.158,"Mozilla/5.0 (Macintosh; Intel Mac OS X 10_15_1) AppleWebKit/537.36 (KHTML, like Gecko) Chrome/90.0.4430.93 Safari/537.36",Macintosh,Chrome,90.0.4430.93,"OS X",10_15_1
51,1,271.2549999996554,z,html-keyboard-response,114,170359,0.0-114.0,IwAR0w03RrWao-7ISp3JzTqxclxvjgG7cVdB2nxuBwn_64fmYv3nnsaP-cZqs,"
    <img id = 'img_b1' width = 18% height = 32% style = 'position:absolute;top:10%;left:25%'>
    <img id = 'img_b2' width = 18% height = 32% style = 'position:absolute;top:10%;right:25%'>
    <img id = 'img_b3' width = 18% height = 32% style = 'position:absolute;bottom:10%;left:25%'>
    <img id = 'img_b4' width = 18% height = 32% style = 'position:absolute;bottom:10%;right:25%'>
    <div id = 'cum' style = 'position:absolute;top:5%;right:5%;font-size:calc(18px + 6 * ((100vw - 320px) / 680))'></div>
  ","""","""","""","""","""","""","""","""","""","2021-05-05 14:16:49",106.205.212.158,"Mozilla/5.0 (Macintosh; Intel Mac OS X 10_15_1) AppleWebKit/537.36 (KHTML, like Gecko) Chrome/90.0.4430.93 Safari/537.36",Macintosh,Chrome,90.0.4430.93,"OS X",10_15_1
51,1,null,null,html-keyboard-response,115,171863,0.0-115.0,IwAR0w03RrWao-7ISp3JzTqxclxvjgG7cVdB2nxuBwn_64fmYv3nnsaP-cZqs,"
    <img id = 'img_b1' width = 18% height = 32% style = 'position:absolute;top:10%;left:25%'>
    <img id = 'img_b2' width = 18% height = 32% style = 'position:absolute;top:10%;right:25%'>
    <img id = 'img_b3' width = 18% height = 32% style = 'position:absolute;bottom:10%;left:25%'>
    <img id = 'img_b4' width = 18% height = 32% style = 'position:absolute;bottom:10%;right:25%'>
    <div id = 'band_txt'></div>
    <div id = 'cum' style = 'position:absolute;top:5%;right:5%;font-size:calc(18px + 6 * ((100vw - 320px) / 680))'></div>
  ","""","""","""","""","""","""","""","""","""","2021-05-05 14:16:49",106.205.212.158,"Mozilla/5.0 (Macintosh; Intel Mac OS X 10_15_1) AppleWebKit/537.36 (KHTML, like Gecko) Chrome/90.0.4430.93 Safari/537.36",Macintosh,Chrome,90.0.4430.93,"OS X",10_15_1
51,1,null,null,html-keyboard-response,116,173117,0.0-116.0,IwAR0w03RrWao-7ISp3JzTqxclxvjgG7cVdB2nxuBwn_64fmYv3nnsaP-cZqs,"<div style=""font-size:60px;"">+</div>","""","""","""","""","""","""","""","""","""","2021-05-05 14:16:49",106.205.212.158,"Mozilla/5.0 (Macintosh; Intel Mac OS X 10_15_1) AppleWebKit/537.36 (KHTML, like Gecko) Chrome/90.0.4430.93 Safari/537.36",Macintosh,Chrome,90.0.4430.93,"OS X",10_15_1
51,1,334.195000003092,z,html-keyboard-response,117,173455,0.0-117.0,IwAR0w03RrWao-7ISp3JzTqxclxvjgG7cVdB2nxuBwn_64fmYv3nnsaP-cZqs,"
    <img id = 'img_b1' width = 18% height = 32% style = 'position:absolute;top:10%;left:25%'>
    <img id = 'img_b2' width = 18% height = 32% style = 'position:absolute;top:10%;right:25%'>
    <img id = 'img_b3' width = 18% height = 32% style = 'position:absolute;bottom:10%;left:25%'>
    <img id = 'img_b4' width = 18% height = 32% style = 'position:absolute;bottom:10%;right:25%'>
    <div id = 'cum' style = 'position:absolute;top:5%;right:5%;font-size:calc(18px + 6 * ((100vw - 320px) / 680))'></div>
  ","""","""","""","""","""","""","""","""","""","2021-05-05 14:16:49",106.205.212.158,"Mozilla/5.0 (Macintosh; Intel Mac OS X 10_15_1) AppleWebKit/537.36 (KHTML, like Gecko) Chrome/90.0.4430.93 Safari/537.36",Macintosh,Chrome,90.0.4430.93,"OS X",10_15_1
51,1,null,null,html-keyboard-response,118,174961,0.0-118.0,IwAR0w03RrWao-7ISp3JzTqxclxvjgG7cVdB2nxuBwn_64fmYv3nnsaP-cZqs,"
    <img id = 'img_b1' width = 18% height = 32% style = 'position:absolute;top:10%;left:25%'>
    <img id = 'img_b2' width = 18% height = 32% style = 'position:absolute;top:10%;right:25%'>
    <img id = 'img_b3' width = 18% height = 32% style = 'position:absolute;bottom:10%;left:25%'>
    <img id = 'img_b4' width = 18% height = 32% style = 'position:absolute;bottom:10%;right:25%'>
    <div id = 'band_txt'></div>
    <div id = 'cum' style = 'position:absolute;top:5%;right:5%;font-size:calc(18px + 6 * ((100vw - 320px) / 680))'></div>
  ","""","""","""","""","""","""","""","""","""","2021-05-05 14:16:49",106.205.212.158,"Mozilla/5.0 (Macintosh; Intel Mac OS X 10_15_1) AppleWebKit/537.36 (KHTML, like Gecko) Chrome/90.0.4430.93 Safari/537.36",Macintosh,Chrome,90.0.4430.93,"OS X",10_15_1
51,1,null,null,html-keyboard-response,119,175712,0.0-119.0,IwAR0w03RrWao-7ISp3JzTqxclxvjgG7cVdB2nxuBwn_64fmYv3nnsaP-cZqs,"<div style=""font-size:60px;"">+</div>","""","""","""","""","""","""","""","""","""","2021-05-05 14:16:49",106.205.212.158,"Mozilla/5.0 (Macintosh; Intel Mac OS X 10_15_1) AppleWebKit/537.36 (KHTML, like Gecko) Chrome/90.0.4430.93 Safari/537.36",Macintosh,Chrome,90.0.4430.93,"OS X",10_15_1
51,1,505.1450000028126,z,html-keyboard-response,120,176218,0.0-120.0,IwAR0w03RrWao-7ISp3JzTqxclxvjgG7cVdB2nxuBwn_64fmYv3nnsaP-cZqs,"
    <img id = 'img_b1' width = 18% height = 32% style = 'position:absolute;top:10%;left:25%'>
    <img id = 'img_b2' width = 18% height = 32% style = 'position:absolute;top:10%;right:25%'>
    <img id = 'img_b3' width = 18% height = 32% style = 'position:absolute;bottom:10%;left:25%'>
    <img id = 'img_b4' width = 18% height = 32% style = 'position:absolute;bottom:10%;right:25%'>
    <div id = 'cum' style = 'position:absolute;top:5%;right:5%;font-size:calc(18px + 6 * ((100vw - 320px) / 680))'></div>
  ","""","""","""","""","""","""","""","""","""","2021-05-05 14:16:49",106.205.212.158,"Mozilla/5.0 (Macintosh; Intel Mac OS X 10_15_1) AppleWebKit/537.36 (KHTML, like Gecko) Chrome/90.0.4430.93 Safari/537.36",Macintosh,Chrome,90.0.4430.93,"OS X",10_15_1
51,1,null,null,html-keyboard-response,121,177720,0.0-121.0,IwAR0w03RrWao-7ISp3JzTqxclxvjgG7cVdB2nxuBwn_64fmYv3nnsaP-cZqs,"
    <img id = 'img_b1' width = 18% height = 32% style = 'position:absolute;top:10%;left:25%'>
    <img id = 'img_b2' width = 18% height = 32% style = 'position:absolute;top:10%;right:25%'>
    <img id = 'img_b3' width = 18% height = 32% style = 'position:absolute;bottom:10%;left:25%'>
    <img id = 'img_b4' width = 18% height = 32% style = 'position:absolute;bottom:10%;right:25%'>
    <div id = 'band_txt'></div>
    <div id = 'cum' style = 'position:absolute;top:5%;right:5%;font-size:calc(18px + 6 * ((100vw - 320px) / 680))'></div>
  ","""","""","""","""","""","""","""","""","""","2021-05-05 14:16:49",106.205.212.158,"Mozilla/5.0 (Macintosh; Intel Mac OS X 10_15_1) AppleWebKit/537.36 (KHTML, like Gecko) Chrome/90.0.4430.93 Safari/537.36",Macintosh,Chrome,90.0.4430.93,"OS X",10_15_1
51,1,null,null,html-keyboard-response,122,178971,0.0-122.0,IwAR0w03RrWao-7ISp3JzTqxclxvjgG7cVdB2nxuBwn_64fmYv3nnsaP-cZqs,"<div style=""font-size:60px;"">+</div>","""","""","""","""","""","""","""","""","""","2021-05-05 14:16:49",106.205.212.158,"Mozilla/5.0 (Macintosh; Intel Mac OS X 10_15_1) AppleWebKit/537.36 (KHTML, like Gecko) Chrome/90.0.4430.93 Safari/537.36",Macintosh,Chrome,90.0.4430.93,"OS X",10_15_1
51,1,490.0199999974575,z,html-keyboard-response,123,179467,0.0-123.0,IwAR0w03RrWao-7ISp3JzTqxclxvjgG7cVdB2nxuBwn_64fmYv3nnsaP-cZqs,"
    <img id = 'img_b1' width = 18% height = 32% style = 'position:absolute;top:10%;left:25%'>
    <img id = 'img_b2' width = 18% height = 32% style = 'position:absolute;top:10%;right:25%'>
    <img id = 'img_b3' width = 18% height = 32% style = 'position:absolute;bottom:10%;left:25%'>
    <img id = 'img_b4' width = 18% height = 32% style = 'position:absolute;bottom:10%;right:25%'>
    <div id = 'cum' style = 'position:absolute;top:5%;right:5%;font-size:calc(18px + 6 * ((100vw - 320px) / 680))'></div>
  ","""","""","""","""","""","""","""","""","""","2021-05-05 14:16:49",106.205.212.158,"Mozilla/5.0 (Macintosh; Intel Mac OS X 10_15_1) AppleWebKit/537.36 (KHTML, like Gecko) Chrome/90.0.4430.93 Safari/537.36",Macintosh,Chrome,90.0.4430.93,"OS X",10_15_1
51,1,null,null,html-keyboard-response,124,180971,0.0-124.0,IwAR0w03RrWao-7ISp3JzTqxclxvjgG7cVdB2nxuBwn_64fmYv3nnsaP-cZqs,"
    <img id = 'img_b1' width = 18% height = 32% style = 'position:absolute;top:10%;left:25%'>
    <img id = 'img_b2' width = 18% height = 32% style = 'position:absolute;top:10%;right:25%'>
    <img id = 'img_b3' width = 18% height = 32% style = 'position:absolute;bottom:10%;left:25%'>
    <img id = 'img_b4' width = 18% height = 32% style = 'position:absolute;bottom:10%;right:25%'>
    <div id = 'band_txt'></div>
    <div id = 'cum' style = 'position:absolute;top:5%;right:5%;font-size:calc(18px + 6 * ((100vw - 320px) / 680))'></div>
  ","""","""","""","""","""","""","""","""","""","2021-05-05 14:16:49",106.205.212.158,"Mozilla/5.0 (Macintosh; Intel Mac OS X 10_15_1) AppleWebKit/537.36 (KHTML, like Gecko) Chrome/90.0.4430.93 Safari/537.36",Macintosh,Chrome,90.0.4430.93,"OS X",10_15_1
51,1,null,null,html-keyboard-response,125,181973,0.0-125.0,IwAR0w03RrWao-7ISp3JzTqxclxvjgG7cVdB2nxuBwn_64fmYv3nnsaP-cZqs,"<div style=""font-size:60px;"">+</div>","""","""","""","""","""","""","""","""","""","2021-05-05 14:16:49",106.205.212.158,"Mozilla/5.0 (Macintosh; Intel Mac OS X 10_15_1) AppleWebKit/537.36 (KHTML, like Gecko) Chrome/90.0.4430.93 Safari/537.36",Macintosh,Chrome,90.0.4430.93,"OS X",10_15_1
51,1,237.88499999500345,z,html-keyboard-response,126,182212,0.0-126.0,IwAR0w03RrWao-7ISp3JzTqxclxvjgG7cVdB2nxuBwn_64fmYv3nnsaP-cZqs,"
    <img id = 'img_b1' width = 18% height = 32% style = 'position:absolute;top:10%;left:25%'>
    <img id = 'img_b2' width = 18% height = 32% style = 'position:absolute;top:10%;right:25%'>
    <img id = 'img_b3' width = 18% height = 32% style = 'position:absolute;bottom:10%;left:25%'>
    <img id = 'img_b4' width = 18% height = 32% style = 'position:absolute;bottom:10%;right:25%'>
    <div id = 'cum' style = 'position:absolute;top:5%;right:5%;font-size:calc(18px + 6 * ((100vw - 320px) / 680))'></div>
  ","""","""","""","""","""","""","""","""","""","2021-05-05 14:16:49",106.205.212.158,"Mozilla/5.0 (Macintosh; Intel Mac OS X 10_15_1) AppleWebKit/537.36 (KHTML, like Gecko) Chrome/90.0.4430.93 Safari/537.36",Macintosh,Chrome,90.0.4430.93,"OS X",10_15_1
51,1,null,null,html-keyboard-response,127,183717,0.0-127.0,IwAR0w03RrWao-7ISp3JzTqxclxvjgG7cVdB2nxuBwn_64fmYv3nnsaP-cZqs,"
    <img id = 'img_b1' width = 18% height = 32% style = 'position:absolute;top:10%;left:25%'>
    <img id = 'img_b2' width = 18% height = 32% style = 'position:absolute;top:10%;right:25%'>
    <img id = 'img_b3' width = 18% height = 32% style = 'position:absolute;bottom:10%;left:25%'>
    <img id = 'img_b4' width = 18% height = 32% style = 'position:absolute;bottom:10%;right:25%'>
    <div id = 'band_txt'></div>
    <div id = 'cum' style = 'position:absolute;top:5%;right:5%;font-size:calc(18px + 6 * ((100vw - 320px) / 680))'></div>
  ","""","""","""","""","""","""","""","""","""","2021-05-05 14:16:49",106.205.212.158,"Mozilla/5.0 (Macintosh; Intel Mac OS X 10_15_1) AppleWebKit/537.36 (KHTML, like Gecko) Chrome/90.0.4430.93 Safari/537.36",Macintosh,Chrome,90.0.4430.93,"OS X",10_15_1
51,1,null,null,html-keyboard-response,128,184721,0.0-128.0,IwAR0w03RrWao-7ISp3JzTqxclxvjgG7cVdB2nxuBwn_64fmYv3nnsaP-cZqs,"<div style=""font-size:60px;"">+</div>","""","""","""","""","""","""","""","""","""","2021-05-05 14:16:49",106.205.212.158,"Mozilla/5.0 (Macintosh; Intel Mac OS X 10_15_1) AppleWebKit/537.36 (KHTML, like Gecko) Chrome/90.0.4430.93 Safari/537.36",Macintosh,Chrome,90.0.4430.93,"OS X",10_15_1
51,1,465.1549999980489,z,html-keyboard-response,129,185193,0.0-129.0,IwAR0w03RrWao-7ISp3JzTqxclxvjgG7cVdB2nxuBwn_64fmYv3nnsaP-cZqs,"
    <img id = 'img_b1' width = 18% height = 32% style = 'position:absolute;top:10%;left:25%'>
    <img id = 'img_b2' width = 18% height = 32% style = 'position:absolute;top:10%;right:25%'>
    <img id = 'img_b3' width = 18% height = 32% style = 'position:absolute;bottom:10%;left:25%'>
    <img id = 'img_b4' width = 18% height = 32% style = 'position:absolute;bottom:10%;right:25%'>
    <div id = 'cum' style = 'position:absolute;top:5%;right:5%;font-size:calc(18px + 6 * ((100vw - 320px) / 680))'></div>
  ","""","""","""","""","""","""","""","""","""","2021-05-05 14:16:49",106.205.212.158,"Mozilla/5.0 (Macintosh; Intel Mac OS X 10_15_1) AppleWebKit/537.36 (KHTML, like Gecko) Chrome/90.0.4430.93 Safari/537.36",Macintosh,Chrome,90.0.4430.93,"OS X",10_15_1
51,1,null,null,html-keyboard-response,130,186695,0.0-130.0,IwAR0w03RrWao-7ISp3JzTqxclxvjgG7cVdB2nxuBwn_64fmYv3nnsaP-cZqs,"
    <img id = 'img_b1' width = 18% height = 32% style = 'position:absolute;top:10%;left:25%'>
    <img id = 'img_b2' width = 18% height = 32% style = 'position:absolute;top:10%;right:25%'>
    <img id = 'img_b3' width = 18% height = 32% style = 'position:absolute;bottom:10%;left:25%'>
    <img id = 'img_b4' width = 18% height = 32% style = 'position:absolute;bottom:10%;right:25%'>
    <div id = 'band_txt'></div>
    <div id = 'cum' style = 'position:absolute;top:5%;right:5%;font-size:calc(18px + 6 * ((100vw - 320px) / 680))'></div>
  ","""","""","""","""","""","""","""","""","""","2021-05-05 14:16:49",106.205.212.158,"Mozilla/5.0 (Macintosh; Intel Mac OS X 10_15_1) AppleWebKit/537.36 (KHTML, like Gecko) Chrome/90.0.4430.93 Safari/537.36",Macintosh,Chrome,90.0.4430.93,"OS X",10_15_1
51,1,null,null,html-keyboard-response,131,188448,0.0-131.0,IwAR0w03RrWao-7ISp3JzTqxclxvjgG7cVdB2nxuBwn_64fmYv3nnsaP-cZqs,"<div style=""font-size:60px;"">+</div>","""","""","""","""","""","""","""","""","""","2021-05-05 14:16:49",106.205.212.158,"Mozilla/5.0 (Macintosh; Intel Mac OS X 10_15_1) AppleWebKit/537.36 (KHTML, like Gecko) Chrome/90.0.4430.93 Safari/537.36",Macintosh,Chrome,90.0.4430.93,"OS X",10_15_1
51,1,360.76999999932013,q,html-keyboard-response,132,188810,0.0-132.0,IwAR0w03RrWao-7ISp3JzTqxclxvjgG7cVdB2nxuBwn_64fmYv3nnsaP-cZqs,"
    <img id = 'img_b1' width = 18% height = 32% style = 'position:absolute;top:10%;left:25%'>
    <img id = 'img_b2' width = 18% height = 32% style = 'position:absolute;top:10%;right:25%'>
    <img id = 'img_b3' width = 18% height = 32% style = 'position:absolute;bottom:10%;left:25%'>
    <img id = 'img_b4' width = 18% height = 32% style = 'position:absolute;bottom:10%;right:25%'>
    <div id = 'cum' style = 'position:absolute;top:5%;right:5%;font-size:calc(18px + 6 * ((100vw - 320px) / 680))'></div>
  ","""","""","""","""","""","""","""","""","""","2021-05-05 14:16:49",106.205.212.158,"Mozilla/5.0 (Macintosh; Intel Mac OS X 10_15_1) AppleWebKit/537.36 (KHTML, like Gecko) Chrome/90.0.4430.93 Safari/537.36",Macintosh,Chrome,90.0.4430.93,"OS X",10_15_1
51,1,null,null,html-keyboard-response,133,190312,0.0-133.0,IwAR0w03RrWao-7ISp3JzTqxclxvjgG7cVdB2nxuBwn_64fmYv3nnsaP-cZqs,"
    <img id = 'img_b1' width = 18% height = 32% style = 'position:absolute;top:10%;left:25%'>
    <img id = 'img_b2' width = 18% height = 32% style = 'position:absolute;top:10%;right:25%'>
    <img id = 'img_b3' width = 18% height = 32% style = 'position:absolute;bottom:10%;left:25%'>
    <img id = 'img_b4' width = 18% height = 32% style = 'position:absolute;bottom:10%;right:25%'>
    <div id = 'band_txt'></div>
    <div id = 'cum' style = 'position:absolute;top:5%;right:5%;font-size:calc(18px + 6 * ((100vw - 320px) / 680))'></div>
  ","""","""","""","""","""","""","""","""","""","2021-05-05 14:16:49",106.205.212.158,"Mozilla/5.0 (Macintosh; Intel Mac OS X 10_15_1) AppleWebKit/537.36 (KHTML, like Gecko) Chrome/90.0.4430.93 Safari/537.36",Macintosh,Chrome,90.0.4430.93,"OS X",10_15_1
51,1,null,null,html-keyboard-response,134,191322,0.0-134.0,IwAR0w03RrWao-7ISp3JzTqxclxvjgG7cVdB2nxuBwn_64fmYv3nnsaP-cZqs,"<div style=""font-size:60px;"">+</div>","""","""","""","""","""","""","""","""","""","2021-05-05 14:16:49",106.205.212.158,"Mozilla/5.0 (Macintosh; Intel Mac OS X 10_15_1) AppleWebKit/537.36 (KHTML, like Gecko) Chrome/90.0.4430.93 Safari/537.36",Macintosh,Chrome,90.0.4430.93,"OS X",10_15_1
