run_id,condition,rt,response,trial_type,trial_index,time_elapsed,internal_node_id,fbclid,stimulus,trend,stable,num,resp_map,success,timeout,failed_images,failed_audio,failed_video,recorded_at,ip,user_agent,device,browser,browser_version,platform,platform_version
52,1,21368637.97,"{""age"":""23"",""sex"":""male"",""hand"":""right""}",survey-text,0,21368666,0.0-0.0,IwAR27Ffc460h0P5mQ7CnBoDOTf6MY3Lv-Usgw-QwnloaNchmFLiMilXrT_w8,"""","""","""","""","""","""","""","""","""","""","2021-05-05 14:19:58",122.171.187.138,"Mozilla/5.0 (X11; Linux x86_64) AppleWebKit/537.36 (KHTML, like Gecko) Chrome/90.0.4430.93 Safari/537.36",WebKit,Chrome,90.0.4430.93,Linux,
52,1,17377.579999998212," ",html-keyboard-response,1,21386062,0.0-1.0,IwAR27Ffc460h0P5mQ7CnBoDOTf6MY3Lv-Usgw-QwnloaNchmFLiMilXrT_w8,"Hi! Thanks for volunteering for this study. It is part of the project component for the course, CS786A - Computational Cognitive Science, at IIT Kanpur.<br> You will now play a decision-making game lasting for 15-20 minutes. In case of any queries, please write to prathams@iitk.ac.in or call at 9760066853.<br><br>Press any key to continue!",1,0,1,"[2,0,1,3]","""","""","""","""","""","2021-05-05 14:19:58",122.171.187.138,"Mozilla/5.0 (X11; Linux x86_64) AppleWebKit/537.36 (KHTML, like Gecko) Chrome/90.0.4430.93 Safari/537.36",WebKit,Chrome,90.0.4430.93,Linux,
52,1,10757.754999998957,z,html-keyboard-response,2,21396825,0.0-2.0,IwAR27Ffc460h0P5mQ7CnBoDOTf6MY3Lv-Usgw-QwnloaNchmFLiMilXrT_w8,"Imagine you are in a casino, and you go to a room with four slot machines. On pulling a machine, it yeilds a reward. At any point, some machines may be better than the others, but the amount they give varies. Your aim is to maximize your cumulative reward by the end of this experiment. <br>Machines are pulled by pressing 'Q', 'P', 'M' or 'Z' on the keyboard. These keys are arranged in the same way on the keyboard as the slot machines are on the screen.<br>Press any button to see an illustration of the trial screen and the keyboard mapping!","""","""","""","""","""","""","""","""","""","2021-05-05 14:19:58",122.171.187.138,"Mozilla/5.0 (X11; Linux x86_64) AppleWebKit/537.36 (KHTML, like Gecko) Chrome/90.0.4430.93 Safari/537.36",WebKit,Chrome,90.0.4430.93,Linux,
52,1,"""","""",preload,3,21398337,0.0-3.0,IwAR27Ffc460h0P5mQ7CnBoDOTf6MY3Lv-Usgw-QwnloaNchmFLiMilXrT_w8,"""","""","""","""","""",true,false,[],[],[],"2021-05-05 14:19:58",122.171.187.138,"Mozilla/5.0 (X11; Linux x86_64) AppleWebKit/537.36 (KHTML, like Gecko) Chrome/90.0.4430.93 Safari/537.36",WebKit,Chrome,90.0.4430.93,Linux,
52,1,1228.9450000040233,q,html-keyboard-response,4,21399569,0.0-4.0,IwAR27Ffc460h0P5mQ7CnBoDOTf6MY3Lv-Usgw-QwnloaNchmFLiMilXrT_w8,"
    <img src = 'img/b1.png' width = 18% height = 32% style = 'position:absolute;top:10%;left:25%'>
    <img src = 'img/b2.png' width = 18% height = 32% style = 'position:absolute;top:10%;right:25%'>
    <img src = 'img/b3.png' width = 18% height = 32% style = 'position:absolute;bottom:10%;left:25%'>
    <img src = 'img/b4.png' width = 18% height = 32% style = 'position:absolute;bottom:10%;right:25%'>
    <div id = 'cum' style = 'position:absolute;top:5%;right:5%;font-size:calc(18px + 6 * ((100vw - 320px) / 680))'>Total</div>
    <div style = 'position:absolute;top:20%;left:30%;color:black;font-size:calc(18px + 6 * ((100vw - 320px) / 680))'>Q</div>
    <div style = 'position:absolute;top:20%;right:35%;color:black;font-size:calc(18px + 6 * ((100vw - 320px) / 680))'>P</div>
    <div style = 'position:absolute;bottom:26%;right:35%;color:black;font-size:calc(18px + 6 * ((100vw - 320px) / 680))'>M</div>
    <div style = 'position:absolute;bottom:26%;left:30%;color:black;font-size:calc(18px + 6 * ((100vw - 320px) / 680))'>Z</div>
    <div style = 'position:absolute;bottom:5%;left:30%'>Press any button to proceed to the experiment!</div>
  ","""","""","""","""","""","""","""","""","""","2021-05-05 14:19:58",122.171.187.138,"Mozilla/5.0 (X11; Linux x86_64) AppleWebKit/537.36 (KHTML, like Gecko) Chrome/90.0.4430.93 Safari/537.36",WebKit,Chrome,90.0.4430.93,Linux,
52,1,null,null,html-keyboard-response,5,21401323,0.0-5.0,IwAR27Ffc460h0P5mQ7CnBoDOTf6MY3Lv-Usgw-QwnloaNchmFLiMilXrT_w8,"<div style=""font-size:60px;"">+</div>","""","""","""","""","""","""","""","""","""","2021-05-05 14:19:58",122.171.187.138,"Mozilla/5.0 (X11; Linux x86_64) AppleWebKit/537.36 (KHTML, like Gecko) Chrome/90.0.4430.93 Safari/537.36",WebKit,Chrome,90.0.4430.93,Linux,
52,1,2303.8249999955297,p,html-keyboard-response,6,21403633,0.0-6.0,IwAR27Ffc460h0P5mQ7CnBoDOTf6MY3Lv-Usgw-QwnloaNchmFLiMilXrT_w8,"
    <img id = 'img_b1' width = 18% height = 32% style = 'position:absolute;top:10%;left:25%'>
    <img id = 'img_b2' width = 18% height = 32% style = 'position:absolute;top:10%;right:25%'>
    <img id = 'img_b3' width = 18% height = 32% style = 'position:absolute;bottom:10%;left:25%'>
    <img id = 'img_b4' width = 18% height = 32% style = 'position:absolute;bottom:10%;right:25%'>
    <div id = 'cum' style = 'position:absolute;top:5%;right:5%;font-size:calc(18px + 6 * ((100vw - 320px) / 680))'></div>
  ","""","""","""","""","""","""","""","""","""","2021-05-05 14:19:58",122.171.187.138,"Mozilla/5.0 (X11; Linux x86_64) AppleWebKit/537.36 (KHTML, like Gecko) Chrome/90.0.4430.93 Safari/537.36",WebKit,Chrome,90.0.4430.93,Linux,
52,1,null,null,html-keyboard-response,7,21405145,0.0-7.0,IwAR27Ffc460h0P5mQ7CnBoDOTf6MY3Lv-Usgw-QwnloaNchmFLiMilXrT_w8,"
    <img id = 'img_b1' width = 18% height = 32% style = 'position:absolute;top:10%;left:25%'>
    <img id = 'img_b2' width = 18% height = 32% style = 'position:absolute;top:10%;right:25%'>
    <img id = 'img_b3' width = 18% height = 32% style = 'position:absolute;bottom:10%;left:25%'>
    <img id = 'img_b4' width = 18% height = 32% style = 'position:absolute;bottom:10%;right:25%'>
    <div id = 'band_txt'></div>
    <div id = 'cum' style = 'position:absolute;top:5%;right:5%;font-size:calc(18px + 6 * ((100vw - 320px) / 680))'></div>
  ","""","""","""","""","""","""","""","""","""","2021-05-05 14:19:58",122.171.187.138,"Mozilla/5.0 (X11; Linux x86_64) AppleWebKit/537.36 (KHTML, like Gecko) Chrome/90.0.4430.93 Safari/537.36",WebKit,Chrome,90.0.4430.93,Linux,
52,1,null,null,html-keyboard-response,8,21406399,0.0-8.0,IwAR27Ffc460h0P5mQ7CnBoDOTf6MY3Lv-Usgw-QwnloaNchmFLiMilXrT_w8,"<div style=""font-size:60px;"">+</div>","""","""","""","""","""","""","""","""","""","2021-05-05 14:19:58",122.171.187.138,"Mozilla/5.0 (X11; Linux x86_64) AppleWebKit/537.36 (KHTML, like Gecko) Chrome/90.0.4430.93 Safari/537.36",WebKit,Chrome,90.0.4430.93,Linux,
52,1,547.910000000149,m,html-keyboard-response,9,21406951,0.0-9.0,IwAR27Ffc460h0P5mQ7CnBoDOTf6MY3Lv-Usgw-QwnloaNchmFLiMilXrT_w8,"
    <img id = 'img_b1' width = 18% height = 32% style = 'position:absolute;top:10%;left:25%'>
    <img id = 'img_b2' width = 18% height = 32% style = 'position:absolute;top:10%;right:25%'>
    <img id = 'img_b3' width = 18% height = 32% style = 'position:absolute;bottom:10%;left:25%'>
    <img id = 'img_b4' width = 18% height = 32% style = 'position:absolute;bottom:10%;right:25%'>
    <div id = 'cum' style = 'position:absolute;top:5%;right:5%;font-size:calc(18px + 6 * ((100vw - 320px) / 680))'></div>
  ","""","""","""","""","""","""","""","""","""","2021-05-05 14:19:58",122.171.187.138,"Mozilla/5.0 (X11; Linux x86_64) AppleWebKit/537.36 (KHTML, like Gecko) Chrome/90.0.4430.93 Safari/537.36",WebKit,Chrome,90.0.4430.93,Linux,
52,1,null,null,html-keyboard-response,10,21408454,0.0-10.0,IwAR27Ffc460h0P5mQ7CnBoDOTf6MY3Lv-Usgw-QwnloaNchmFLiMilXrT_w8,"
    <img id = 'img_b1' width = 18% height = 32% style = 'position:absolute;top:10%;left:25%'>
    <img id = 'img_b2' width = 18% height = 32% style = 'position:absolute;top:10%;right:25%'>
    <img id = 'img_b3' width = 18% height = 32% style = 'position:absolute;bottom:10%;left:25%'>
    <img id = 'img_b4' width = 18% height = 32% style = 'position:absolute;bottom:10%;right:25%'>
    <div id = 'band_txt'></div>
    <div id = 'cum' style = 'position:absolute;top:5%;right:5%;font-size:calc(18px + 6 * ((100vw - 320px) / 680))'></div>
  ","""","""","""","""","""","""","""","""","""","2021-05-05 14:19:58",122.171.187.138,"Mozilla/5.0 (X11; Linux x86_64) AppleWebKit/537.36 (KHTML, like Gecko) Chrome/90.0.4430.93 Safari/537.36",WebKit,Chrome,90.0.4430.93,Linux,
52,1,null,null,html-keyboard-response,11,21409708,0.0-11.0,IwAR27Ffc460h0P5mQ7CnBoDOTf6MY3Lv-Usgw-QwnloaNchmFLiMilXrT_w8,"<div style=""font-size:60px;"">+</div>","""","""","""","""","""","""","""","""","""","2021-05-05 14:19:58",122.171.187.138,"Mozilla/5.0 (X11; Linux x86_64) AppleWebKit/537.36 (KHTML, like Gecko) Chrome/90.0.4430.93 Safari/537.36",WebKit,Chrome,90.0.4430.93,Linux,
52,1,359.49000000208616,p,html-keyboard-response,12,21410077,0.0-12.0,IwAR27Ffc460h0P5mQ7CnBoDOTf6MY3Lv-Usgw-QwnloaNchmFLiMilXrT_w8,"
    <img id = 'img_b1' width = 18% height = 32% style = 'position:absolute;top:10%;left:25%'>
    <img id = 'img_b2' width = 18% height = 32% style = 'position:absolute;top:10%;right:25%'>
    <img id = 'img_b3' width = 18% height = 32% style = 'position:absolute;bottom:10%;left:25%'>
    <img id = 'img_b4' width = 18% height = 32% style = 'position:absolute;bottom:10%;right:25%'>
    <div id = 'cum' style = 'position:absolute;top:5%;right:5%;font-size:calc(18px + 6 * ((100vw - 320px) / 680))'></div>
  ","""","""","""","""","""","""","""","""","""","2021-05-05 14:19:58",122.171.187.138,"Mozilla/5.0 (X11; Linux x86_64) AppleWebKit/537.36 (KHTML, like Gecko) Chrome/90.0.4430.93 Safari/537.36",WebKit,Chrome,90.0.4430.93,Linux,
52,1,null,null,html-keyboard-response,13,21411583,0.0-13.0,IwAR27Ffc460h0P5mQ7CnBoDOTf6MY3Lv-Usgw-QwnloaNchmFLiMilXrT_w8,"
    <img id = 'img_b1' width = 18% height = 32% style = 'position:absolute;top:10%;left:25%'>
    <img id = 'img_b2' width = 18% height = 32% style = 'position:absolute;top:10%;right:25%'>
    <img id = 'img_b3' width = 18% height = 32% style = 'position:absolute;bottom:10%;left:25%'>
    <img id = 'img_b4' width = 18% height = 32% style = 'position:absolute;bottom:10%;right:25%'>
    <div id = 'band_txt'></div>
    <div id = 'cum' style = 'position:absolute;top:5%;right:5%;font-size:calc(18px + 6 * ((100vw - 320px) / 680))'></div>
  ","""","""","""","""","""","""","""","""","""","2021-05-05 14:19:58",122.171.187.138,"Mozilla/5.0 (X11; Linux x86_64) AppleWebKit/537.36 (KHTML, like Gecko) Chrome/90.0.4430.93 Safari/537.36",WebKit,Chrome,90.0.4430.93,Linux,
52,1,null,null,html-keyboard-response,14,21413086,0.0-14.0,IwAR27Ffc460h0P5mQ7CnBoDOTf6MY3Lv-Usgw-QwnloaNchmFLiMilXrT_w8,"<div style=""font-size:60px;"">+</div>","""","""","""","""","""","""","""","""","""","2021-05-05 14:19:58",122.171.187.138,"Mozilla/5.0 (X11; Linux x86_64) AppleWebKit/537.36 (KHTML, like Gecko) Chrome/90.0.4430.93 Safari/537.36",WebKit,Chrome,90.0.4430.93,Linux,
52,1,252.04999999701977,q,html-keyboard-response,15,21413340,0.0-15.0,IwAR27Ffc460h0P5mQ7CnBoDOTf6MY3Lv-Usgw-QwnloaNchmFLiMilXrT_w8,"
    <img id = 'img_b1' width = 18% height = 32% style = 'position:absolute;top:10%;left:25%'>
    <img id = 'img_b2' width = 18% height = 32% style = 'position:absolute;top:10%;right:25%'>
    <img id = 'img_b3' width = 18% height = 32% style = 'position:absolute;bottom:10%;left:25%'>
    <img id = 'img_b4' width = 18% height = 32% style = 'position:absolute;bottom:10%;right:25%'>
    <div id = 'cum' style = 'position:absolute;top:5%;right:5%;font-size:calc(18px + 6 * ((100vw - 320px) / 680))'></div>
  ","""","""","""","""","""","""","""","""","""","2021-05-05 14:19:58",122.171.187.138,"Mozilla/5.0 (X11; Linux x86_64) AppleWebKit/537.36 (KHTML, like Gecko) Chrome/90.0.4430.93 Safari/537.36",WebKit,Chrome,90.0.4430.93,Linux,
52,1,null,null,html-keyboard-response,16,21414844,0.0-16.0,IwAR27Ffc460h0P5mQ7CnBoDOTf6MY3Lv-Usgw-QwnloaNchmFLiMilXrT_w8,"
    <img id = 'img_b1' width = 18% height = 32% style = 'position:absolute;top:10%;left:25%'>
    <img id = 'img_b2' width = 18% height = 32% style = 'position:absolute;top:10%;right:25%'>
    <img id = 'img_b3' width = 18% height = 32% style = 'position:absolute;bottom:10%;left:25%'>
    <img id = 'img_b4' width = 18% height = 32% style = 'position:absolute;bottom:10%;right:25%'>
    <div id = 'band_txt'></div>
    <div id = 'cum' style = 'position:absolute;top:5%;right:5%;font-size:calc(18px + 6 * ((100vw - 320px) / 680))'></div>
  ","""","""","""","""","""","""","""","""","""","2021-05-05 14:19:58",122.171.187.138,"Mozilla/5.0 (X11; Linux x86_64) AppleWebKit/537.36 (KHTML, like Gecko) Chrome/90.0.4430.93 Safari/537.36",WebKit,Chrome,90.0.4430.93,Linux,
52,1,null,null,html-keyboard-response,17,21416347,0.0-17.0,IwAR27Ffc460h0P5mQ7CnBoDOTf6MY3Lv-Usgw-QwnloaNchmFLiMilXrT_w8,"<div style=""font-size:60px;"">+</div>","""","""","""","""","""","""","""","""","""","2021-05-05 14:19:58",122.171.187.138,"Mozilla/5.0 (X11; Linux x86_64) AppleWebKit/537.36 (KHTML, like Gecko) Chrome/90.0.4430.93 Safari/537.36",WebKit,Chrome,90.0.4430.93,Linux,
52,1,389.92499999701977,z,html-keyboard-response,18,21416748,0.0-18.0,IwAR27Ffc460h0P5mQ7CnBoDOTf6MY3Lv-Usgw-QwnloaNchmFLiMilXrT_w8,"
    <img id = 'img_b1' width = 18% height = 32% style = 'position:absolute;top:10%;left:25%'>
    <img id = 'img_b2' width = 18% height = 32% style = 'position:absolute;top:10%;right:25%'>
    <img id = 'img_b3' width = 18% height = 32% style = 'position:absolute;bottom:10%;left:25%'>
    <img id = 'img_b4' width = 18% height = 32% style = 'position:absolute;bottom:10%;right:25%'>
    <div id = 'cum' style = 'position:absolute;top:5%;right:5%;font-size:calc(18px + 6 * ((100vw - 320px) / 680))'></div>
  ","""","""","""","""","""","""","""","""","""","2021-05-05 14:19:58",122.171.187.138,"Mozilla/5.0 (X11; Linux x86_64) AppleWebKit/537.36 (KHTML, like Gecko) Chrome/90.0.4430.93 Safari/537.36",WebKit,Chrome,90.0.4430.93,Linux,
52,1,null,null,html-keyboard-response,19,21418253,0.0-19.0,IwAR27Ffc460h0P5mQ7CnBoDOTf6MY3Lv-Usgw-QwnloaNchmFLiMilXrT_w8,"
    <img id = 'img_b1' width = 18% height = 32% style = 'position:absolute;top:10%;left:25%'>
    <img id = 'img_b2' width = 18% height = 32% style = 'position:absolute;top:10%;right:25%'>
    <img id = 'img_b3' width = 18% height = 32% style = 'position:absolute;bottom:10%;left:25%'>
    <img id = 'img_b4' width = 18% height = 32% style = 'position:absolute;bottom:10%;right:25%'>
    <div id = 'band_txt'></div>
    <div id = 'cum' style = 'position:absolute;top:5%;right:5%;font-size:calc(18px + 6 * ((100vw - 320px) / 680))'></div>
  ","""","""","""","""","""","""","""","""","""","2021-05-05 14:19:58",122.171.187.138,"Mozilla/5.0 (X11; Linux x86_64) AppleWebKit/537.36 (KHTML, like Gecko) Chrome/90.0.4430.93 Safari/537.36",WebKit,Chrome,90.0.4430.93,Linux,
52,1,null,null,html-keyboard-response,20,21419505,0.0-20.0,IwAR27Ffc460h0P5mQ7CnBoDOTf6MY3Lv-Usgw-QwnloaNchmFLiMilXrT_w8,"<div style=""font-size:60px;"">+</div>","""","""","""","""","""","""","""","""","""","2021-05-05 14:19:58",122.171.187.138,"Mozilla/5.0 (X11; Linux x86_64) AppleWebKit/537.36 (KHTML, like Gecko) Chrome/90.0.4430.93 Safari/537.36",WebKit,Chrome,90.0.4430.93,Linux,
52,1,897.0800000019372,z,html-keyboard-response,21,21420406,0.0-21.0,IwAR27Ffc460h0P5mQ7CnBoDOTf6MY3Lv-Usgw-QwnloaNchmFLiMilXrT_w8,"
    <img id = 'img_b1' width = 18% height = 32% style = 'position:absolute;top:10%;left:25%'>
    <img id = 'img_b2' width = 18% height = 32% style = 'position:absolute;top:10%;right:25%'>
    <img id = 'img_b3' width = 18% height = 32% style = 'position:absolute;bottom:10%;left:25%'>
    <img id = 'img_b4' width = 18% height = 32% style = 'position:absolute;bottom:10%;right:25%'>
    <div id = 'cum' style = 'position:absolute;top:5%;right:5%;font-size:calc(18px + 6 * ((100vw - 320px) / 680))'></div>
  ","""","""","""","""","""","""","""","""","""","2021-05-05 14:19:58",122.171.187.138,"Mozilla/5.0 (X11; Linux x86_64) AppleWebKit/537.36 (KHTML, like Gecko) Chrome/90.0.4430.93 Safari/537.36",WebKit,Chrome,90.0.4430.93,Linux,
52,1,null,null,html-keyboard-response,22,21421910,0.0-22.0,IwAR27Ffc460h0P5mQ7CnBoDOTf6MY3Lv-Usgw-QwnloaNchmFLiMilXrT_w8,"
    <img id = 'img_b1' width = 18% height = 32% style = 'position:absolute;top:10%;left:25%'>
    <img id = 'img_b2' width = 18% height = 32% style = 'position:absolute;top:10%;right:25%'>
    <img id = 'img_b3' width = 18% height = 32% style = 'position:absolute;bottom:10%;left:25%'>
    <img id = 'img_b4' width = 18% height = 32% style = 'position:absolute;bottom:10%;right:25%'>
    <div id = 'band_txt'></div>
    <div id = 'cum' style = 'position:absolute;top:5%;right:5%;font-size:calc(18px + 6 * ((100vw - 320px) / 680))'></div>
  ","""","""","""","""","""","""","""","""","""","2021-05-05 14:19:58",122.171.187.138,"Mozilla/5.0 (X11; Linux x86_64) AppleWebKit/537.36 (KHTML, like Gecko) Chrome/90.0.4430.93 Safari/537.36",WebKit,Chrome,90.0.4430.93,Linux,
52,1,null,null,html-keyboard-response,23,21423168,0.0-23.0,IwAR27Ffc460h0P5mQ7CnBoDOTf6MY3Lv-Usgw-QwnloaNchmFLiMilXrT_w8,"<div style=""font-size:60px;"">+</div>","""","""","""","""","""","""","""","""","""","2021-05-05 14:19:58",122.171.187.138,"Mozilla/5.0 (X11; Linux x86_64) AppleWebKit/537.36 (KHTML, like Gecko) Chrome/90.0.4430.93 Safari/537.36",WebKit,Chrome,90.0.4430.93,Linux,
52,1,382.86500000581145,z,html-keyboard-response,24,21423554,0.0-24.0,IwAR27Ffc460h0P5mQ7CnBoDOTf6MY3Lv-Usgw-QwnloaNchmFLiMilXrT_w8,"
    <img id = 'img_b1' width = 18% height = 32% style = 'position:absolute;top:10%;left:25%'>
    <img id = 'img_b2' width = 18% height = 32% style = 'position:absolute;top:10%;right:25%'>
    <img id = 'img_b3' width = 18% height = 32% style = 'position:absolute;bottom:10%;left:25%'>
    <img id = 'img_b4' width = 18% height = 32% style = 'position:absolute;bottom:10%;right:25%'>
    <div id = 'cum' style = 'position:absolute;top:5%;right:5%;font-size:calc(18px + 6 * ((100vw - 320px) / 680))'></div>
  ","""","""","""","""","""","""","""","""","""","2021-05-05 14:19:58",122.171.187.138,"Mozilla/5.0 (X11; Linux x86_64) AppleWebKit/537.36 (KHTML, like Gecko) Chrome/90.0.4430.93 Safari/537.36",WebKit,Chrome,90.0.4430.93,Linux,
52,1,null,null,html-keyboard-response,25,21425059,0.0-25.0,IwAR27Ffc460h0P5mQ7CnBoDOTf6MY3Lv-Usgw-QwnloaNchmFLiMilXrT_w8,"
    <img id = 'img_b1' width = 18% height = 32% style = 'position:absolute;top:10%;left:25%'>
    <img id = 'img_b2' width = 18% height = 32% style = 'position:absolute;top:10%;right:25%'>
    <img id = 'img_b3' width = 18% height = 32% style = 'position:absolute;bottom:10%;left:25%'>
    <img id = 'img_b4' width = 18% height = 32% style = 'position:absolute;bottom:10%;right:25%'>
    <div id = 'band_txt'></div>
    <div id = 'cum' style = 'position:absolute;top:5%;right:5%;font-size:calc(18px + 6 * ((100vw - 320px) / 680))'></div>
  ","""","""","""","""","""","""","""","""","""","2021-05-05 14:19:58",122.171.187.138,"Mozilla/5.0 (X11; Linux x86_64) AppleWebKit/537.36 (KHTML, like Gecko) Chrome/90.0.4430.93 Safari/537.36",WebKit,Chrome,90.0.4430.93,Linux,
52,1,null,null,html-keyboard-response,26,21426562,0.0-26.0,IwAR27Ffc460h0P5mQ7CnBoDOTf6MY3Lv-Usgw-QwnloaNchmFLiMilXrT_w8,"<div style=""font-size:60px;"">+</div>","""","""","""","""","""","""","""","""","""","2021-05-05 14:19:58",122.171.187.138,"Mozilla/5.0 (X11; Linux x86_64) AppleWebKit/537.36 (KHTML, like Gecko) Chrome/90.0.4430.93 Safari/537.36",WebKit,Chrome,90.0.4430.93,Linux,
52,1,341.30500000342727,q,html-keyboard-response,27,21426907,0.0-27.0,IwAR27Ffc460h0P5mQ7CnBoDOTf6MY3Lv-Usgw-QwnloaNchmFLiMilXrT_w8,"
    <img id = 'img_b1' width = 18% height = 32% style = 'position:absolute;top:10%;left:25%'>
    <img id = 'img_b2' width = 18% height = 32% style = 'position:absolute;top:10%;right:25%'>
    <img id = 'img_b3' width = 18% height = 32% style = 'position:absolute;bottom:10%;left:25%'>
    <img id = 'img_b4' width = 18% height = 32% style = 'position:absolute;bottom:10%;right:25%'>
    <div id = 'cum' style = 'position:absolute;top:5%;right:5%;font-size:calc(18px + 6 * ((100vw - 320px) / 680))'></div>
  ","""","""","""","""","""","""","""","""","""","2021-05-05 14:19:58",122.171.187.138,"Mozilla/5.0 (X11; Linux x86_64) AppleWebKit/537.36 (KHTML, like Gecko) Chrome/90.0.4430.93 Safari/537.36",WebKit,Chrome,90.0.4430.93,Linux,
52,1,null,null,html-keyboard-response,28,21428411,0.0-28.0,IwAR27Ffc460h0P5mQ7CnBoDOTf6MY3Lv-Usgw-QwnloaNchmFLiMilXrT_w8,"
    <img id = 'img_b1' width = 18% height = 32% style = 'position:absolute;top:10%;left:25%'>
    <img id = 'img_b2' width = 18% height = 32% style = 'position:absolute;top:10%;right:25%'>
    <img id = 'img_b3' width = 18% height = 32% style = 'position:absolute;bottom:10%;left:25%'>
    <img id = 'img_b4' width = 18% height = 32% style = 'position:absolute;bottom:10%;right:25%'>
    <div id = 'band_txt'></div>
    <div id = 'cum' style = 'position:absolute;top:5%;right:5%;font-size:calc(18px + 6 * ((100vw - 320px) / 680))'></div>
  ","""","""","""","""","""","""","""","""","""","2021-05-05 14:19:58",122.171.187.138,"Mozilla/5.0 (X11; Linux x86_64) AppleWebKit/537.36 (KHTML, like Gecko) Chrome/90.0.4430.93 Safari/537.36",WebKit,Chrome,90.0.4430.93,Linux,
52,1,null,null,html-keyboard-response,29,21429417,0.0-29.0,IwAR27Ffc460h0P5mQ7CnBoDOTf6MY3Lv-Usgw-QwnloaNchmFLiMilXrT_w8,"<div style=""font-size:60px;"">+</div>","""","""","""","""","""","""","""","""","""","2021-05-05 14:19:58",122.171.187.138,"Mozilla/5.0 (X11; Linux x86_64) AppleWebKit/537.36 (KHTML, like Gecko) Chrome/90.0.4430.93 Safari/537.36",WebKit,Chrome,90.0.4430.93,Linux,
52,1,220.14499999955297,q,html-keyboard-response,30,21429641,0.0-30.0,IwAR27Ffc460h0P5mQ7CnBoDOTf6MY3Lv-Usgw-QwnloaNchmFLiMilXrT_w8,"
    <img id = 'img_b1' width = 18% height = 32% style = 'position:absolute;top:10%;left:25%'>
    <img id = 'img_b2' width = 18% height = 32% style = 'position:absolute;top:10%;right:25%'>
    <img id = 'img_b3' width = 18% height = 32% style = 'position:absolute;bottom:10%;left:25%'>
    <img id = 'img_b4' width = 18% height = 32% style = 'position:absolute;bottom:10%;right:25%'>
    <div id = 'cum' style = 'position:absolute;top:5%;right:5%;font-size:calc(18px + 6 * ((100vw - 320px) / 680))'></div>
  ","""","""","""","""","""","""","""","""","""","2021-05-05 14:19:58",122.171.187.138,"Mozilla/5.0 (X11; Linux x86_64) AppleWebKit/537.36 (KHTML, like Gecko) Chrome/90.0.4430.93 Safari/537.36",WebKit,Chrome,90.0.4430.93,Linux,
52,1,null,null,html-keyboard-response,31,21431146,0.0-31.0,IwAR27Ffc460h0P5mQ7CnBoDOTf6MY3Lv-Usgw-QwnloaNchmFLiMilXrT_w8,"
    <img id = 'img_b1' width = 18% height = 32% style = 'position:absolute;top:10%;left:25%'>
    <img id = 'img_b2' width = 18% height = 32% style = 'position:absolute;top:10%;right:25%'>
    <img id = 'img_b3' width = 18% height = 32% style = 'position:absolute;bottom:10%;left:25%'>
    <img id = 'img_b4' width = 18% height = 32% style = 'position:absolute;bottom:10%;right:25%'>
    <div id = 'band_txt'></div>
    <div id = 'cum' style = 'position:absolute;top:5%;right:5%;font-size:calc(18px + 6 * ((100vw - 320px) / 680))'></div>
  ","""","""","""","""","""","""","""","""","""","2021-05-05 14:19:58",122.171.187.138,"Mozilla/5.0 (X11; Linux x86_64) AppleWebKit/537.36 (KHTML, like Gecko) Chrome/90.0.4430.93 Safari/537.36",WebKit,Chrome,90.0.4430.93,Linux,
52,1,null,null,html-keyboard-response,32,21432399,0.0-32.0,IwAR27Ffc460h0P5mQ7CnBoDOTf6MY3Lv-Usgw-QwnloaNchmFLiMilXrT_w8,"<div style=""font-size:60px;"">+</div>","""","""","""","""","""","""","""","""","""","2021-05-05 14:19:58",122.171.187.138,"Mozilla/5.0 (X11; Linux x86_64) AppleWebKit/537.36 (KHTML, like Gecko) Chrome/90.0.4430.93 Safari/537.36",WebKit,Chrome,90.0.4430.93,Linux,
52,1,433.64500000327826,q,html-keyboard-response,33,21432836,0.0-33.0,IwAR27Ffc460h0P5mQ7CnBoDOTf6MY3Lv-Usgw-QwnloaNchmFLiMilXrT_w8,"
    <img id = 'img_b1' width = 18% height = 32% style = 'position:absolute;top:10%;left:25%'>
    <img id = 'img_b2' width = 18% height = 32% style = 'position:absolute;top:10%;right:25%'>
    <img id = 'img_b3' width = 18% height = 32% style = 'position:absolute;bottom:10%;left:25%'>
    <img id = 'img_b4' width = 18% height = 32% style = 'position:absolute;bottom:10%;right:25%'>
    <div id = 'cum' style = 'position:absolute;top:5%;right:5%;font-size:calc(18px + 6 * ((100vw - 320px) / 680))'></div>
  ","""","""","""","""","""","""","""","""","""","2021-05-05 14:19:58",122.171.187.138,"Mozilla/5.0 (X11; Linux x86_64) AppleWebKit/537.36 (KHTML, like Gecko) Chrome/90.0.4430.93 Safari/537.36",WebKit,Chrome,90.0.4430.93,Linux,
52,1,null,null,html-keyboard-response,34,21434340,0.0-34.0,IwAR27Ffc460h0P5mQ7CnBoDOTf6MY3Lv-Usgw-QwnloaNchmFLiMilXrT_w8,"
    <img id = 'img_b1' width = 18% height = 32% style = 'position:absolute;top:10%;left:25%'>
    <img id = 'img_b2' width = 18% height = 32% style = 'position:absolute;top:10%;right:25%'>
    <img id = 'img_b3' width = 18% height = 32% style = 'position:absolute;bottom:10%;left:25%'>
    <img id = 'img_b4' width = 18% height = 32% style = 'position:absolute;bottom:10%;right:25%'>
    <div id = 'band_txt'></div>
    <div id = 'cum' style = 'position:absolute;top:5%;right:5%;font-size:calc(18px + 6 * ((100vw - 320px) / 680))'></div>
  ","""","""","""","""","""","""","""","""","""","2021-05-05 14:19:58",122.171.187.138,"Mozilla/5.0 (X11; Linux x86_64) AppleWebKit/537.36 (KHTML, like Gecko) Chrome/90.0.4430.93 Safari/537.36",WebKit,Chrome,90.0.4430.93,Linux,
52,1,null,null,html-keyboard-response,35,21435854,0.0-35.0,IwAR27Ffc460h0P5mQ7CnBoDOTf6MY3Lv-Usgw-QwnloaNchmFLiMilXrT_w8,"<div style=""font-size:60px;"">+</div>","""","""","""","""","""","""","""","""","""","2021-05-05 14:19:58",122.171.187.138,"Mozilla/5.0 (X11; Linux x86_64) AppleWebKit/537.36 (KHTML, like Gecko) Chrome/90.0.4430.93 Safari/537.36",WebKit,Chrome,90.0.4430.93,Linux,
52,1,286.13999999687076,q,html-keyboard-response,36,21436143,0.0-36.0,IwAR27Ffc460h0P5mQ7CnBoDOTf6MY3Lv-Usgw-QwnloaNchmFLiMilXrT_w8,"
    <img id = 'img_b1' width = 18% height = 32% style = 'position:absolute;top:10%;left:25%'>
    <img id = 'img_b2' width = 18% height = 32% style = 'position:absolute;top:10%;right:25%'>
    <img id = 'img_b3' width = 18% height = 32% style = 'position:absolute;bottom:10%;left:25%'>
    <img id = 'img_b4' width = 18% height = 32% style = 'position:absolute;bottom:10%;right:25%'>
    <div id = 'cum' style = 'position:absolute;top:5%;right:5%;font-size:calc(18px + 6 * ((100vw - 320px) / 680))'></div>
  ","""","""","""","""","""","""","""","""","""","2021-05-05 14:19:58",122.171.187.138,"Mozilla/5.0 (X11; Linux x86_64) AppleWebKit/537.36 (KHTML, like Gecko) Chrome/90.0.4430.93 Safari/537.36",WebKit,Chrome,90.0.4430.93,Linux,
52,1,null,null,html-keyboard-response,37,21437648,0.0-37.0,IwAR27Ffc460h0P5mQ7CnBoDOTf6MY3Lv-Usgw-QwnloaNchmFLiMilXrT_w8,"
    <img id = 'img_b1' width = 18% height = 32% style = 'position:absolute;top:10%;left:25%'>
    <img id = 'img_b2' width = 18% height = 32% style = 'position:absolute;top:10%;right:25%'>
    <img id = 'img_b3' width = 18% height = 32% style = 'position:absolute;bottom:10%;left:25%'>
    <img id = 'img_b4' width = 18% height = 32% style = 'position:absolute;bottom:10%;right:25%'>
    <div id = 'band_txt'></div>
    <div id = 'cum' style = 'position:absolute;top:5%;right:5%;font-size:calc(18px + 6 * ((100vw - 320px) / 680))'></div>
  ","""","""","""","""","""","""","""","""","""","2021-05-05 14:19:58",122.171.187.138,"Mozilla/5.0 (X11; Linux x86_64) AppleWebKit/537.36 (KHTML, like Gecko) Chrome/90.0.4430.93 Safari/537.36",WebKit,Chrome,90.0.4430.93,Linux,
52,1,null,null,html-keyboard-response,38,21438650,0.0-38.0,IwAR27Ffc460h0P5mQ7CnBoDOTf6MY3Lv-Usgw-QwnloaNchmFLiMilXrT_w8,"<div style=""font-size:60px;"">+</div>","""","""","""","""","""","""","""","""","""","2021-05-05 14:19:58",122.171.187.138,"Mozilla/5.0 (X11; Linux x86_64) AppleWebKit/537.36 (KHTML, like Gecko) Chrome/90.0.4430.93 Safari/537.36",WebKit,Chrome,90.0.4430.93,Linux,
52,1,324.82499999552965,m,html-keyboard-response,39,21438978,0.0-39.0,IwAR27Ffc460h0P5mQ7CnBoDOTf6MY3Lv-Usgw-QwnloaNchmFLiMilXrT_w8,"
    <img id = 'img_b1' width = 18% height = 32% style = 'position:absolute;top:10%;left:25%'>
    <img id = 'img_b2' width = 18% height = 32% style = 'position:absolute;top:10%;right:25%'>
    <img id = 'img_b3' width = 18% height = 32% style = 'position:absolute;bottom:10%;left:25%'>
    <img id = 'img_b4' width = 18% height = 32% style = 'position:absolute;bottom:10%;right:25%'>
    <div id = 'cum' style = 'position:absolute;top:5%;right:5%;font-size:calc(18px + 6 * ((100vw - 320px) / 680))'></div>
  ","""","""","""","""","""","""","""","""","""","2021-05-05 14:19:58",122.171.187.138,"Mozilla/5.0 (X11; Linux x86_64) AppleWebKit/537.36 (KHTML, like Gecko) Chrome/90.0.4430.93 Safari/537.36",WebKit,Chrome,90.0.4430.93,Linux,
52,1,null,null,html-keyboard-response,40,21440483,0.0-40.0,IwAR27Ffc460h0P5mQ7CnBoDOTf6MY3Lv-Usgw-QwnloaNchmFLiMilXrT_w8,"
    <img id = 'img_b1' width = 18% height = 32% style = 'position:absolute;top:10%;left:25%'>
    <img id = 'img_b2' width = 18% height = 32% style = 'position:absolute;top:10%;right:25%'>
    <img id = 'img_b3' width = 18% height = 32% style = 'position:absolute;bottom:10%;left:25%'>
    <img id = 'img_b4' width = 18% height = 32% style = 'position:absolute;bottom:10%;right:25%'>
    <div id = 'band_txt'></div>
    <div id = 'cum' style = 'position:absolute;top:5%;right:5%;font-size:calc(18px + 6 * ((100vw - 320px) / 680))'></div>
  ","""","""","""","""","""","""","""","""","""","2021-05-05 14:19:58",122.171.187.138,"Mozilla/5.0 (X11; Linux x86_64) AppleWebKit/537.36 (KHTML, like Gecko) Chrome/90.0.4430.93 Safari/537.36",WebKit,Chrome,90.0.4430.93,Linux,
52,1,null,null,html-keyboard-response,41,21441502,0.0-41.0,IwAR27Ffc460h0P5mQ7CnBoDOTf6MY3Lv-Usgw-QwnloaNchmFLiMilXrT_w8,"<div style=""font-size:60px;"">+</div>","""","""","""","""","""","""","""","""","""","2021-05-05 14:19:58",122.171.187.138,"Mozilla/5.0 (X11; Linux x86_64) AppleWebKit/537.36 (KHTML, like Gecko) Chrome/90.0.4430.93 Safari/537.36",WebKit,Chrome,90.0.4430.93,Linux,
52,1,399.99000000581145,z,html-keyboard-response,42,21441904,0.0-42.0,IwAR27Ffc460h0P5mQ7CnBoDOTf6MY3Lv-Usgw-QwnloaNchmFLiMilXrT_w8,"
    <img id = 'img_b1' width = 18% height = 32% style = 'position:absolute;top:10%;left:25%'>
    <img id = 'img_b2' width = 18% height = 32% style = 'position:absolute;top:10%;right:25%'>
    <img id = 'img_b3' width = 18% height = 32% style = 'position:absolute;bottom:10%;left:25%'>
    <img id = 'img_b4' width = 18% height = 32% style = 'position:absolute;bottom:10%;right:25%'>
    <div id = 'cum' style = 'position:absolute;top:5%;right:5%;font-size:calc(18px + 6 * ((100vw - 320px) / 680))'></div>
  ","""","""","""","""","""","""","""","""","""","2021-05-05 14:19:58",122.171.187.138,"Mozilla/5.0 (X11; Linux x86_64) AppleWebKit/537.36 (KHTML, like Gecko) Chrome/90.0.4430.93 Safari/537.36",WebKit,Chrome,90.0.4430.93,Linux,
52,1,null,null,html-keyboard-response,43,21443409,0.0-43.0,IwAR27Ffc460h0P5mQ7CnBoDOTf6MY3Lv-Usgw-QwnloaNchmFLiMilXrT_w8,"
    <img id = 'img_b1' width = 18% height = 32% style = 'position:absolute;top:10%;left:25%'>
    <img id = 'img_b2' width = 18% height = 32% style = 'position:absolute;top:10%;right:25%'>
    <img id = 'img_b3' width = 18% height = 32% style = 'position:absolute;bottom:10%;left:25%'>
    <img id = 'img_b4' width = 18% height = 32% style = 'position:absolute;bottom:10%;right:25%'>
    <div id = 'band_txt'></div>
    <div id = 'cum' style = 'position:absolute;top:5%;right:5%;font-size:calc(18px + 6 * ((100vw - 320px) / 680))'></div>
  ","""","""","""","""","""","""","""","""","""","2021-05-05 14:19:58",122.171.187.138,"Mozilla/5.0 (X11; Linux x86_64) AppleWebKit/537.36 (KHTML, like Gecko) Chrome/90.0.4430.93 Safari/537.36",WebKit,Chrome,90.0.4430.93,Linux,
52,1,null,null,html-keyboard-response,44,21444662,0.0-44.0,IwAR27Ffc460h0P5mQ7CnBoDOTf6MY3Lv-Usgw-QwnloaNchmFLiMilXrT_w8,"<div style=""font-size:60px;"">+</div>","""","""","""","""","""","""","""","""","""","2021-05-05 14:19:58",122.171.187.138,"Mozilla/5.0 (X11; Linux x86_64) AppleWebKit/537.36 (KHTML, like Gecko) Chrome/90.0.4430.93 Safari/537.36",WebKit,Chrome,90.0.4430.93,Linux,
52,1,253.62000000104308,z,html-keyboard-response,45,21444919,0.0-45.0,IwAR27Ffc460h0P5mQ7CnBoDOTf6MY3Lv-Usgw-QwnloaNchmFLiMilXrT_w8,"
    <img id = 'img_b1' width = 18% height = 32% style = 'position:absolute;top:10%;left:25%'>
    <img id = 'img_b2' width = 18% height = 32% style = 'position:absolute;top:10%;right:25%'>
    <img id = 'img_b3' width = 18% height = 32% style = 'position:absolute;bottom:10%;left:25%'>
    <img id = 'img_b4' width = 18% height = 32% style = 'position:absolute;bottom:10%;right:25%'>
    <div id = 'cum' style = 'position:absolute;top:5%;right:5%;font-size:calc(18px + 6 * ((100vw - 320px) / 680))'></div>
  ","""","""","""","""","""","""","""","""","""","2021-05-05 14:19:58",122.171.187.138,"Mozilla/5.0 (X11; Linux x86_64) AppleWebKit/537.36 (KHTML, like Gecko) Chrome/90.0.4430.93 Safari/537.36",WebKit,Chrome,90.0.4430.93,Linux,
52,1,null,null,html-keyboard-response,46,21446424,0.0-46.0,IwAR27Ffc460h0P5mQ7CnBoDOTf6MY3Lv-Usgw-QwnloaNchmFLiMilXrT_w8,"
    <img id = 'img_b1' width = 18% height = 32% style = 'position:absolute;top:10%;left:25%'>
    <img id = 'img_b2' width = 18% height = 32% style = 'position:absolute;top:10%;right:25%'>
    <img id = 'img_b3' width = 18% height = 32% style = 'position:absolute;bottom:10%;left:25%'>
    <img id = 'img_b4' width = 18% height = 32% style = 'position:absolute;bottom:10%;right:25%'>
    <div id = 'band_txt'></div>
    <div id = 'cum' style = 'position:absolute;top:5%;right:5%;font-size:calc(18px + 6 * ((100vw - 320px) / 680))'></div>
  ","""","""","""","""","""","""","""","""","""","2021-05-05 14:19:58",122.171.187.138,"Mozilla/5.0 (X11; Linux x86_64) AppleWebKit/537.36 (KHTML, like Gecko) Chrome/90.0.4430.93 Safari/537.36",WebKit,Chrome,90.0.4430.93,Linux,
52,1,null,null,html-keyboard-response,47,21448191,0.0-47.0,IwAR27Ffc460h0P5mQ7CnBoDOTf6MY3Lv-Usgw-QwnloaNchmFLiMilXrT_w8,"<div style=""font-size:60px;"">+</div>","""","""","""","""","""","""","""","""","""","2021-05-05 14:19:58",122.171.187.138,"Mozilla/5.0 (X11; Linux x86_64) AppleWebKit/537.36 (KHTML, like Gecko) Chrome/90.0.4430.93 Safari/537.36",WebKit,Chrome,90.0.4430.93,Linux,
52,1,361.26999999955297,z,html-keyboard-response,48,21448555,0.0-48.0,IwAR27Ffc460h0P5mQ7CnBoDOTf6MY3Lv-Usgw-QwnloaNchmFLiMilXrT_w8,"
    <img id = 'img_b1' width = 18% height = 32% style = 'position:absolute;top:10%;left:25%'>
    <img id = 'img_b2' width = 18% height = 32% style = 'position:absolute;top:10%;right:25%'>
    <img id = 'img_b3' width = 18% height = 32% style = 'position:absolute;bottom:10%;left:25%'>
    <img id = 'img_b4' width = 18% height = 32% style = 'position:absolute;bottom:10%;right:25%'>
    <div id = 'cum' style = 'position:absolute;top:5%;right:5%;font-size:calc(18px + 6 * ((100vw - 320px) / 680))'></div>
  ","""","""","""","""","""","""","""","""","""","2021-05-05 14:19:58",122.171.187.138,"Mozilla/5.0 (X11; Linux x86_64) AppleWebKit/537.36 (KHTML, like Gecko) Chrome/90.0.4430.93 Safari/537.36",WebKit,Chrome,90.0.4430.93,Linux,
52,1,null,null,html-keyboard-response,49,21450060,0.0-49.0,IwAR27Ffc460h0P5mQ7CnBoDOTf6MY3Lv-Usgw-QwnloaNchmFLiMilXrT_w8,"
    <img id = 'img_b1' width = 18% height = 32% style = 'position:absolute;top:10%;left:25%'>
    <img id = 'img_b2' width = 18% height = 32% style = 'position:absolute;top:10%;right:25%'>
    <img id = 'img_b3' width = 18% height = 32% style = 'position:absolute;bottom:10%;left:25%'>
    <img id = 'img_b4' width = 18% height = 32% style = 'position:absolute;bottom:10%;right:25%'>
    <div id = 'band_txt'></div>
    <div id = 'cum' style = 'position:absolute;top:5%;right:5%;font-size:calc(18px + 6 * ((100vw - 320px) / 680))'></div>
  ","""","""","""","""","""","""","""","""","""","2021-05-05 14:19:58",122.171.187.138,"Mozilla/5.0 (X11; Linux x86_64) AppleWebKit/537.36 (KHTML, like Gecko) Chrome/90.0.4430.93 Safari/537.36",WebKit,Chrome,90.0.4430.93,Linux,
52,1,null,null,html-keyboard-response,50,21451562,0.0-50.0,IwAR27Ffc460h0P5mQ7CnBoDOTf6MY3Lv-Usgw-QwnloaNchmFLiMilXrT_w8,"<div style=""font-size:60px;"">+</div>","""","""","""","""","""","""","""","""","""","2021-05-05 14:19:58",122.171.187.138,"Mozilla/5.0 (X11; Linux x86_64) AppleWebKit/537.36 (KHTML, like Gecko) Chrome/90.0.4430.93 Safari/537.36",WebKit,Chrome,90.0.4430.93,Linux,
52,1,509.19999999925494,z,html-keyboard-response,51,21452073,0.0-51.0,IwAR27Ffc460h0P5mQ7CnBoDOTf6MY3Lv-Usgw-QwnloaNchmFLiMilXrT_w8,"
    <img id = 'img_b1' width = 18% height = 32% style = 'position:absolute;top:10%;left:25%'>
    <img id = 'img_b2' width = 18% height = 32% style = 'position:absolute;top:10%;right:25%'>
    <img id = 'img_b3' width = 18% height = 32% style = 'position:absolute;bottom:10%;left:25%'>
    <img id = 'img_b4' width = 18% height = 32% style = 'position:absolute;bottom:10%;right:25%'>
    <div id = 'cum' style = 'position:absolute;top:5%;right:5%;font-size:calc(18px + 6 * ((100vw - 320px) / 680))'></div>
  ","""","""","""","""","""","""","""","""","""","2021-05-05 14:19:58",122.171.187.138,"Mozilla/5.0 (X11; Linux x86_64) AppleWebKit/537.36 (KHTML, like Gecko) Chrome/90.0.4430.93 Safari/537.36",WebKit,Chrome,90.0.4430.93,Linux,
52,1,null,null,html-keyboard-response,52,21453601,0.0-52.0,IwAR27Ffc460h0P5mQ7CnBoDOTf6MY3Lv-Usgw-QwnloaNchmFLiMilXrT_w8,"
    <img id = 'img_b1' width = 18% height = 32% style = 'position:absolute;top:10%;left:25%'>
    <img id = 'img_b2' width = 18% height = 32% style = 'position:absolute;top:10%;right:25%'>
    <img id = 'img_b3' width = 18% height = 32% style = 'position:absolute;bottom:10%;left:25%'>
    <img id = 'img_b4' width = 18% height = 32% style = 'position:absolute;bottom:10%;right:25%'>
    <div id = 'band_txt'></div>
    <div id = 'cum' style = 'position:absolute;top:5%;right:5%;font-size:calc(18px + 6 * ((100vw - 320px) / 680))'></div>
  ","""","""","""","""","""","""","""","""","""","2021-05-05 14:19:58",122.171.187.138,"Mozilla/5.0 (X11; Linux x86_64) AppleWebKit/537.36 (KHTML, like Gecko) Chrome/90.0.4430.93 Safari/537.36",WebKit,Chrome,90.0.4430.93,Linux,
52,1,null,null,html-keyboard-response,53,21455355,0.0-53.0,IwAR27Ffc460h0P5mQ7CnBoDOTf6MY3Lv-Usgw-QwnloaNchmFLiMilXrT_w8,"<div style=""font-size:60px;"">+</div>","""","""","""","""","""","""","""","""","""","2021-05-05 14:19:58",122.171.187.138,"Mozilla/5.0 (X11; Linux x86_64) AppleWebKit/537.36 (KHTML, like Gecko) Chrome/90.0.4430.93 Safari/537.36",WebKit,Chrome,90.0.4430.93,Linux,
52,1,293.9150000028312,z,html-keyboard-response,54,21455652,0.0-54.0,IwAR27Ffc460h0P5mQ7CnBoDOTf6MY3Lv-Usgw-QwnloaNchmFLiMilXrT_w8,"
    <img id = 'img_b1' width = 18% height = 32% style = 'position:absolute;top:10%;left:25%'>
    <img id = 'img_b2' width = 18% height = 32% style = 'position:absolute;top:10%;right:25%'>
    <img id = 'img_b3' width = 18% height = 32% style = 'position:absolute;bottom:10%;left:25%'>
    <img id = 'img_b4' width = 18% height = 32% style = 'position:absolute;bottom:10%;right:25%'>
    <div id = 'cum' style = 'position:absolute;top:5%;right:5%;font-size:calc(18px + 6 * ((100vw - 320px) / 680))'></div>
  ","""","""","""","""","""","""","""","""","""","2021-05-05 14:19:58",122.171.187.138,"Mozilla/5.0 (X11; Linux x86_64) AppleWebKit/537.36 (KHTML, like Gecko) Chrome/90.0.4430.93 Safari/537.36",WebKit,Chrome,90.0.4430.93,Linux,
52,1,null,null,html-keyboard-response,55,21457159,0.0-55.0,IwAR27Ffc460h0P5mQ7CnBoDOTf6MY3Lv-Usgw-QwnloaNchmFLiMilXrT_w8,"
    <img id = 'img_b1' width = 18% height = 32% style = 'position:absolute;top:10%;left:25%'>
    <img id = 'img_b2' width = 18% height = 32% style = 'position:absolute;top:10%;right:25%'>
    <img id = 'img_b3' width = 18% height = 32% style = 'position:absolute;bottom:10%;left:25%'>
    <img id = 'img_b4' width = 18% height = 32% style = 'position:absolute;bottom:10%;right:25%'>
    <div id = 'band_txt'></div>
    <div id = 'cum' style = 'position:absolute;top:5%;right:5%;font-size:calc(18px + 6 * ((100vw - 320px) / 680))'></div>
  ","""","""","""","""","""","""","""","""","""","2021-05-05 14:19:58",122.171.187.138,"Mozilla/5.0 (X11; Linux x86_64) AppleWebKit/537.36 (KHTML, like Gecko) Chrome/90.0.4430.93 Safari/537.36",WebKit,Chrome,90.0.4430.93,Linux,
52,1,null,null,html-keyboard-response,56,21458662,0.0-56.0,IwAR27Ffc460h0P5mQ7CnBoDOTf6MY3Lv-Usgw-QwnloaNchmFLiMilXrT_w8,"<div style=""font-size:60px;"">+</div>","""","""","""","""","""","""","""","""","""","2021-05-05 14:19:58",122.171.187.138,"Mozilla/5.0 (X11; Linux x86_64) AppleWebKit/537.36 (KHTML, like Gecko) Chrome/90.0.4430.93 Safari/537.36",WebKit,Chrome,90.0.4430.93,Linux,
52,1,279.464999999851,z,html-keyboard-response,57,21458959,0.0-57.0,IwAR27Ffc460h0P5mQ7CnBoDOTf6MY3Lv-Usgw-QwnloaNchmFLiMilXrT_w8,"
    <img id = 'img_b1' width = 18% height = 32% style = 'position:absolute;top:10%;left:25%'>
    <img id = 'img_b2' width = 18% height = 32% style = 'position:absolute;top:10%;right:25%'>
    <img id = 'img_b3' width = 18% height = 32% style = 'position:absolute;bottom:10%;left:25%'>
    <img id = 'img_b4' width = 18% height = 32% style = 'position:absolute;bottom:10%;right:25%'>
    <div id = 'cum' style = 'position:absolute;top:5%;right:5%;font-size:calc(18px + 6 * ((100vw - 320px) / 680))'></div>
  ","""","""","""","""","""","""","""","""","""","2021-05-05 14:19:58",122.171.187.138,"Mozilla/5.0 (X11; Linux x86_64) AppleWebKit/537.36 (KHTML, like Gecko) Chrome/90.0.4430.93 Safari/537.36",WebKit,Chrome,90.0.4430.93,Linux,
52,1,null,null,html-keyboard-response,58,21460463,0.0-58.0,IwAR27Ffc460h0P5mQ7CnBoDOTf6MY3Lv-Usgw-QwnloaNchmFLiMilXrT_w8,"
    <img id = 'img_b1' width = 18% height = 32% style = 'position:absolute;top:10%;left:25%'>
    <img id = 'img_b2' width = 18% height = 32% style = 'position:absolute;top:10%;right:25%'>
    <img id = 'img_b3' width = 18% height = 32% style = 'position:absolute;bottom:10%;left:25%'>
    <img id = 'img_b4' width = 18% height = 32% style = 'position:absolute;bottom:10%;right:25%'>
    <div id = 'band_txt'></div>
    <div id = 'cum' style = 'position:absolute;top:5%;right:5%;font-size:calc(18px + 6 * ((100vw - 320px) / 680))'></div>
  ","""","""","""","""","""","""","""","""","""","2021-05-05 14:19:58",122.171.187.138,"Mozilla/5.0 (X11; Linux x86_64) AppleWebKit/537.36 (KHTML, like Gecko) Chrome/90.0.4430.93 Safari/537.36",WebKit,Chrome,90.0.4430.93,Linux,
52,1,null,null,html-keyboard-response,59,21462217,0.0-59.0,IwAR27Ffc460h0P5mQ7CnBoDOTf6MY3Lv-Usgw-QwnloaNchmFLiMilXrT_w8,"<div style=""font-size:60px;"">+</div>","""","""","""","""","""","""","""","""","""","2021-05-05 14:19:58",122.171.187.138,"Mozilla/5.0 (X11; Linux x86_64) AppleWebKit/537.36 (KHTML, like Gecko) Chrome/90.0.4430.93 Safari/537.36",WebKit,Chrome,90.0.4430.93,Linux,
52,1,10.405000001192093,z,html-keyboard-response,60,21462229,0.0-60.0,IwAR27Ffc460h0P5mQ7CnBoDOTf6MY3Lv-Usgw-QwnloaNchmFLiMilXrT_w8,"
    <img id = 'img_b1' width = 18% height = 32% style = 'position:absolute;top:10%;left:25%'>
    <img id = 'img_b2' width = 18% height = 32% style = 'position:absolute;top:10%;right:25%'>
    <img id = 'img_b3' width = 18% height = 32% style = 'position:absolute;bottom:10%;left:25%'>
    <img id = 'img_b4' width = 18% height = 32% style = 'position:absolute;bottom:10%;right:25%'>
    <div id = 'cum' style = 'position:absolute;top:5%;right:5%;font-size:calc(18px + 6 * ((100vw - 320px) / 680))'></div>
  ","""","""","""","""","""","""","""","""","""","2021-05-05 14:19:58",122.171.187.138,"Mozilla/5.0 (X11; Linux x86_64) AppleWebKit/537.36 (KHTML, like Gecko) Chrome/90.0.4430.93 Safari/537.36",WebKit,Chrome,90.0.4430.93,Linux,
52,1,null,null,html-keyboard-response,61,21463732,0.0-61.0,IwAR27Ffc460h0P5mQ7CnBoDOTf6MY3Lv-Usgw-QwnloaNchmFLiMilXrT_w8,"
    <img id = 'img_b1' width = 18% height = 32% style = 'position:absolute;top:10%;left:25%'>
    <img id = 'img_b2' width = 18% height = 32% style = 'position:absolute;top:10%;right:25%'>
    <img id = 'img_b3' width = 18% height = 32% style = 'position:absolute;bottom:10%;left:25%'>
    <img id = 'img_b4' width = 18% height = 32% style = 'position:absolute;bottom:10%;right:25%'>
    <div id = 'band_txt'></div>
    <div id = 'cum' style = 'position:absolute;top:5%;right:5%;font-size:calc(18px + 6 * ((100vw - 320px) / 680))'></div>
  ","""","""","""","""","""","""","""","""","""","2021-05-05 14:19:58",122.171.187.138,"Mozilla/5.0 (X11; Linux x86_64) AppleWebKit/537.36 (KHTML, like Gecko) Chrome/90.0.4430.93 Safari/537.36",WebKit,Chrome,90.0.4430.93,Linux,
52,1,null,null,html-keyboard-response,62,21465485,0.0-62.0,IwAR27Ffc460h0P5mQ7CnBoDOTf6MY3Lv-Usgw-QwnloaNchmFLiMilXrT_w8,"<div style=""font-size:60px;"">+</div>","""","""","""","""","""","""","""","""","""","2021-05-05 14:19:58",122.171.187.138,"Mozilla/5.0 (X11; Linux x86_64) AppleWebKit/537.36 (KHTML, like Gecko) Chrome/90.0.4430.93 Safari/537.36",WebKit,Chrome,90.0.4430.93,Linux,
52,1,286.4150000028312,p,html-keyboard-response,63,21465789,0.0-63.0,IwAR27Ffc460h0P5mQ7CnBoDOTf6MY3Lv-Usgw-QwnloaNchmFLiMilXrT_w8,"
    <img id = 'img_b1' width = 18% height = 32% style = 'position:absolute;top:10%;left:25%'>
    <img id = 'img_b2' width = 18% height = 32% style = 'position:absolute;top:10%;right:25%'>
    <img id = 'img_b3' width = 18% height = 32% style = 'position:absolute;bottom:10%;left:25%'>
    <img id = 'img_b4' width = 18% height = 32% style = 'position:absolute;bottom:10%;right:25%'>
    <div id = 'cum' style = 'position:absolute;top:5%;right:5%;font-size:calc(18px + 6 * ((100vw - 320px) / 680))'></div>
  ","""","""","""","""","""","""","""","""","""","2021-05-05 14:19:58",122.171.187.138,"Mozilla/5.0 (X11; Linux x86_64) AppleWebKit/537.36 (KHTML, like Gecko) Chrome/90.0.4430.93 Safari/537.36",WebKit,Chrome,90.0.4430.93,Linux,
52,1,null,null,html-keyboard-response,64,21467293,0.0-64.0,IwAR27Ffc460h0P5mQ7CnBoDOTf6MY3Lv-Usgw-QwnloaNchmFLiMilXrT_w8,"
    <img id = 'img_b1' width = 18% height = 32% style = 'position:absolute;top:10%;left:25%'>
    <img id = 'img_b2' width = 18% height = 32% style = 'position:absolute;top:10%;right:25%'>
    <img id = 'img_b3' width = 18% height = 32% style = 'position:absolute;bottom:10%;left:25%'>
    <img id = 'img_b4' width = 18% height = 32% style = 'position:absolute;bottom:10%;right:25%'>
    <div id = 'band_txt'></div>
    <div id = 'cum' style = 'position:absolute;top:5%;right:5%;font-size:calc(18px + 6 * ((100vw - 320px) / 680))'></div>
  ","""","""","""","""","""","""","""","""","""","2021-05-05 14:19:58",122.171.187.138,"Mozilla/5.0 (X11; Linux x86_64) AppleWebKit/537.36 (KHTML, like Gecko) Chrome/90.0.4430.93 Safari/537.36",WebKit,Chrome,90.0.4430.93,Linux,
52,1,null,null,html-keyboard-response,65,21468046,0.0-65.0,IwAR27Ffc460h0P5mQ7CnBoDOTf6MY3Lv-Usgw-QwnloaNchmFLiMilXrT_w8,"<div style=""font-size:60px;"">+</div>","""","""","""","""","""","""","""","""","""","2021-05-05 14:19:58",122.171.187.138,"Mozilla/5.0 (X11; Linux x86_64) AppleWebKit/537.36 (KHTML, like Gecko) Chrome/90.0.4430.93 Safari/537.36",WebKit,Chrome,90.0.4430.93,Linux,
52,1,415.4050000011921,z,html-keyboard-response,66,21468465,0.0-66.0,IwAR27Ffc460h0P5mQ7CnBoDOTf6MY3Lv-Usgw-QwnloaNchmFLiMilXrT_w8,"
    <img id = 'img_b1' width = 18% height = 32% style = 'position:absolute;top:10%;left:25%'>
    <img id = 'img_b2' width = 18% height = 32% style = 'position:absolute;top:10%;right:25%'>
    <img id = 'img_b3' width = 18% height = 32% style = 'position:absolute;bottom:10%;left:25%'>
    <img id = 'img_b4' width = 18% height = 32% style = 'position:absolute;bottom:10%;right:25%'>
    <div id = 'cum' style = 'position:absolute;top:5%;right:5%;font-size:calc(18px + 6 * ((100vw - 320px) / 680))'></div>
  ","""","""","""","""","""","""","""","""","""","2021-05-05 14:19:58",122.171.187.138,"Mozilla/5.0 (X11; Linux x86_64) AppleWebKit/537.36 (KHTML, like Gecko) Chrome/90.0.4430.93 Safari/537.36",WebKit,Chrome,90.0.4430.93,Linux,
52,1,null,null,html-keyboard-response,67,21469970,0.0-67.0,IwAR27Ffc460h0P5mQ7CnBoDOTf6MY3Lv-Usgw-QwnloaNchmFLiMilXrT_w8,"
    <img id = 'img_b1' width = 18% height = 32% style = 'position:absolute;top:10%;left:25%'>
    <img id = 'img_b2' width = 18% height = 32% style = 'position:absolute;top:10%;right:25%'>
    <img id = 'img_b3' width = 18% height = 32% style = 'position:absolute;bottom:10%;left:25%'>
    <img id = 'img_b4' width = 18% height = 32% style = 'position:absolute;bottom:10%;right:25%'>
    <div id = 'band_txt'></div>
    <div id = 'cum' style = 'position:absolute;top:5%;right:5%;font-size:calc(18px + 6 * ((100vw - 320px) / 680))'></div>
  ","""","""","""","""","""","""","""","""","""","2021-05-05 14:19:58",122.171.187.138,"Mozilla/5.0 (X11; Linux x86_64) AppleWebKit/537.36 (KHTML, like Gecko) Chrome/90.0.4430.93 Safari/537.36",WebKit,Chrome,90.0.4430.93,Linux,
52,1,null,null,html-keyboard-response,68,21470973,0.0-68.0,IwAR27Ffc460h0P5mQ7CnBoDOTf6MY3Lv-Usgw-QwnloaNchmFLiMilXrT_w8,"<div style=""font-size:60px;"">+</div>","""","""","""","""","""","""","""","""","""","2021-05-05 14:19:58",122.171.187.138,"Mozilla/5.0 (X11; Linux x86_64) AppleWebKit/537.36 (KHTML, like Gecko) Chrome/90.0.4430.93 Safari/537.36",WebKit,Chrome,90.0.4430.93,Linux,
52,1,256.1550000011921,m,html-keyboard-response,69,21471232,0.0-69.0,IwAR27Ffc460h0P5mQ7CnBoDOTf6MY3Lv-Usgw-QwnloaNchmFLiMilXrT_w8,"
    <img id = 'img_b1' width = 18% height = 32% style = 'position:absolute;top:10%;left:25%'>
    <img id = 'img_b2' width = 18% height = 32% style = 'position:absolute;top:10%;right:25%'>
    <img id = 'img_b3' width = 18% height = 32% style = 'position:absolute;bottom:10%;left:25%'>
    <img id = 'img_b4' width = 18% height = 32% style = 'position:absolute;bottom:10%;right:25%'>
    <div id = 'cum' style = 'position:absolute;top:5%;right:5%;font-size:calc(18px + 6 * ((100vw - 320px) / 680))'></div>
  ","""","""","""","""","""","""","""","""","""","2021-05-05 14:19:58",122.171.187.138,"Mozilla/5.0 (X11; Linux x86_64) AppleWebKit/537.36 (KHTML, like Gecko) Chrome/90.0.4430.93 Safari/537.36",WebKit,Chrome,90.0.4430.93,Linux,
52,1,null,null,html-keyboard-response,70,21472763,0.0-70.0,IwAR27Ffc460h0P5mQ7CnBoDOTf6MY3Lv-Usgw-QwnloaNchmFLiMilXrT_w8,"
    <img id = 'img_b1' width = 18% height = 32% style = 'position:absolute;top:10%;left:25%'>
    <img id = 'img_b2' width = 18% height = 32% style = 'position:absolute;top:10%;right:25%'>
    <img id = 'img_b3' width = 18% height = 32% style = 'position:absolute;bottom:10%;left:25%'>
    <img id = 'img_b4' width = 18% height = 32% style = 'position:absolute;bottom:10%;right:25%'>
    <div id = 'band_txt'></div>
    <div id = 'cum' style = 'position:absolute;top:5%;right:5%;font-size:calc(18px + 6 * ((100vw - 320px) / 680))'></div>
  ","""","""","""","""","""","""","""","""","""","2021-05-05 14:19:58",122.171.187.138,"Mozilla/5.0 (X11; Linux x86_64) AppleWebKit/537.36 (KHTML, like Gecko) Chrome/90.0.4430.93 Safari/537.36",WebKit,Chrome,90.0.4430.93,Linux,
52,1,null,null,html-keyboard-response,71,21473514,0.0-71.0,IwAR27Ffc460h0P5mQ7CnBoDOTf6MY3Lv-Usgw-QwnloaNchmFLiMilXrT_w8,"<div style=""font-size:60px;"">+</div>","""","""","""","""","""","""","""","""","""","2021-05-05 14:19:58",122.171.187.138,"Mozilla/5.0 (X11; Linux x86_64) AppleWebKit/537.36 (KHTML, like Gecko) Chrome/90.0.4430.93 Safari/537.36",WebKit,Chrome,90.0.4430.93,Linux,
52,1,236.01500000059605,q,html-keyboard-response,72,21473752,0.0-72.0,IwAR27Ffc460h0P5mQ7CnBoDOTf6MY3Lv-Usgw-QwnloaNchmFLiMilXrT_w8,"
    <img id = 'img_b1' width = 18% height = 32% style = 'position:absolute;top:10%;left:25%'>
    <img id = 'img_b2' width = 18% height = 32% style = 'position:absolute;top:10%;right:25%'>
    <img id = 'img_b3' width = 18% height = 32% style = 'position:absolute;bottom:10%;left:25%'>
    <img id = 'img_b4' width = 18% height = 32% style = 'position:absolute;bottom:10%;right:25%'>
    <div id = 'cum' style = 'position:absolute;top:5%;right:5%;font-size:calc(18px + 6 * ((100vw - 320px) / 680))'></div>
  ","""","""","""","""","""","""","""","""","""","2021-05-05 14:19:58",122.171.187.138,"Mozilla/5.0 (X11; Linux x86_64) AppleWebKit/537.36 (KHTML, like Gecko) Chrome/90.0.4430.93 Safari/537.36",WebKit,Chrome,90.0.4430.93,Linux,
52,1,null,null,html-keyboard-response,73,21475257,0.0-73.0,IwAR27Ffc460h0P5mQ7CnBoDOTf6MY3Lv-Usgw-QwnloaNchmFLiMilXrT_w8,"
    <img id = 'img_b1' width = 18% height = 32% style = 'position:absolute;top:10%;left:25%'>
    <img id = 'img_b2' width = 18% height = 32% style = 'position:absolute;top:10%;right:25%'>
    <img id = 'img_b3' width = 18% height = 32% style = 'position:absolute;bottom:10%;left:25%'>
    <img id = 'img_b4' width = 18% height = 32% style = 'position:absolute;bottom:10%;right:25%'>
    <div id = 'band_txt'></div>
    <div id = 'cum' style = 'position:absolute;top:5%;right:5%;font-size:calc(18px + 6 * ((100vw - 320px) / 680))'></div>
  ","""","""","""","""","""","""","""","""","""","2021-05-05 14:19:58",122.171.187.138,"Mozilla/5.0 (X11; Linux x86_64) AppleWebKit/537.36 (KHTML, like Gecko) Chrome/90.0.4430.93 Safari/537.36",WebKit,Chrome,90.0.4430.93,Linux,
52,1,null,null,html-keyboard-response,74,21477010,0.0-74.0,IwAR27Ffc460h0P5mQ7CnBoDOTf6MY3Lv-Usgw-QwnloaNchmFLiMilXrT_w8,"<div style=""font-size:60px;"">+</div>","""","""","""","""","""","""","""","""","""","2021-05-05 14:19:58",122.171.187.138,"Mozilla/5.0 (X11; Linux x86_64) AppleWebKit/537.36 (KHTML, like Gecko) Chrome/90.0.4430.93 Safari/537.36",WebKit,Chrome,90.0.4430.93,Linux,
52,1,256.25,q,html-keyboard-response,75,21477275,0.0-75.0,IwAR27Ffc460h0P5mQ7CnBoDOTf6MY3Lv-Usgw-QwnloaNchmFLiMilXrT_w8,"
    <img id = 'img_b1' width = 18% height = 32% style = 'position:absolute;top:10%;left:25%'>
    <img id = 'img_b2' width = 18% height = 32% style = 'position:absolute;top:10%;right:25%'>
    <img id = 'img_b3' width = 18% height = 32% style = 'position:absolute;bottom:10%;left:25%'>
    <img id = 'img_b4' width = 18% height = 32% style = 'position:absolute;bottom:10%;right:25%'>
    <div id = 'cum' style = 'position:absolute;top:5%;right:5%;font-size:calc(18px + 6 * ((100vw - 320px) / 680))'></div>
  ","""","""","""","""","""","""","""","""","""","2021-05-05 14:19:58",122.171.187.138,"Mozilla/5.0 (X11; Linux x86_64) AppleWebKit/537.36 (KHTML, like Gecko) Chrome/90.0.4430.93 Safari/537.36",WebKit,Chrome,90.0.4430.93,Linux,
52,1,null,null,html-keyboard-response,76,21478780,0.0-76.0,IwAR27Ffc460h0P5mQ7CnBoDOTf6MY3Lv-Usgw-QwnloaNchmFLiMilXrT_w8,"
    <img id = 'img_b1' width = 18% height = 32% style = 'position:absolute;top:10%;left:25%'>
    <img id = 'img_b2' width = 18% height = 32% style = 'position:absolute;top:10%;right:25%'>
    <img id = 'img_b3' width = 18% height = 32% style = 'position:absolute;bottom:10%;left:25%'>
    <img id = 'img_b4' width = 18% height = 32% style = 'position:absolute;bottom:10%;right:25%'>
    <div id = 'band_txt'></div>
    <div id = 'cum' style = 'position:absolute;top:5%;right:5%;font-size:calc(18px + 6 * ((100vw - 320px) / 680))'></div>
  ","""","""","""","""","""","""","""","""","""","2021-05-05 14:19:58",122.171.187.138,"Mozilla/5.0 (X11; Linux x86_64) AppleWebKit/537.36 (KHTML, like Gecko) Chrome/90.0.4430.93 Safari/537.36",WebKit,Chrome,90.0.4430.93,Linux,
52,1,null,null,html-keyboard-response,77,21479783,0.0-77.0,IwAR27Ffc460h0P5mQ7CnBoDOTf6MY3Lv-Usgw-QwnloaNchmFLiMilXrT_w8,"<div style=""font-size:60px;"">+</div>","""","""","""","""","""","""","""","""","""","2021-05-05 14:19:58",122.171.187.138,"Mozilla/5.0 (X11; Linux x86_64) AppleWebKit/537.36 (KHTML, like Gecko) Chrome/90.0.4430.93 Safari/537.36",WebKit,Chrome,90.0.4430.93,Linux,
52,1,244.26999999582767,q,html-keyboard-response,78,21480030,0.0-78.0,IwAR27Ffc460h0P5mQ7CnBoDOTf6MY3Lv-Usgw-QwnloaNchmFLiMilXrT_w8,"
    <img id = 'img_b1' width = 18% height = 32% style = 'position:absolute;top:10%;left:25%'>
    <img id = 'img_b2' width = 18% height = 32% style = 'position:absolute;top:10%;right:25%'>
    <img id = 'img_b3' width = 18% height = 32% style = 'position:absolute;bottom:10%;left:25%'>
    <img id = 'img_b4' width = 18% height = 32% style = 'position:absolute;bottom:10%;right:25%'>
    <div id = 'cum' style = 'position:absolute;top:5%;right:5%;font-size:calc(18px + 6 * ((100vw - 320px) / 680))'></div>
  ","""","""","""","""","""","""","""","""","""","2021-05-05 14:19:58",122.171.187.138,"Mozilla/5.0 (X11; Linux x86_64) AppleWebKit/537.36 (KHTML, like Gecko) Chrome/90.0.4430.93 Safari/537.36",WebKit,Chrome,90.0.4430.93,Linux,
52,1,null,null,html-keyboard-response,79,21481534,0.0-79.0,IwAR27Ffc460h0P5mQ7CnBoDOTf6MY3Lv-Usgw-QwnloaNchmFLiMilXrT_w8,"
    <img id = 'img_b1' width = 18% height = 32% style = 'position:absolute;top:10%;left:25%'>
    <img id = 'img_b2' width = 18% height = 32% style = 'position:absolute;top:10%;right:25%'>
    <img id = 'img_b3' width = 18% height = 32% style = 'position:absolute;bottom:10%;left:25%'>
    <img id = 'img_b4' width = 18% height = 32% style = 'position:absolute;bottom:10%;right:25%'>
    <div id = 'band_txt'></div>
    <div id = 'cum' style = 'position:absolute;top:5%;right:5%;font-size:calc(18px + 6 * ((100vw - 320px) / 680))'></div>
  ","""","""","""","""","""","""","""","""","""","2021-05-05 14:19:58",122.171.187.138,"Mozilla/5.0 (X11; Linux x86_64) AppleWebKit/537.36 (KHTML, like Gecko) Chrome/90.0.4430.93 Safari/537.36",WebKit,Chrome,90.0.4430.93,Linux,
52,1,null,null,html-keyboard-response,80,21482787,0.0-80.0,IwAR27Ffc460h0P5mQ7CnBoDOTf6MY3Lv-Usgw-QwnloaNchmFLiMilXrT_w8,"<div style=""font-size:60px;"">+</div>","""","""","""","""","""","""","""","""","""","2021-05-05 14:19:58",122.171.187.138,"Mozilla/5.0 (X11; Linux x86_64) AppleWebKit/537.36 (KHTML, like Gecko) Chrome/90.0.4430.93 Safari/537.36",WebKit,Chrome,90.0.4430.93,Linux,
52,1,229.48499999567866,z,html-keyboard-response,81,21483024,0.0-81.0,IwAR27Ffc460h0P5mQ7CnBoDOTf6MY3Lv-Usgw-QwnloaNchmFLiMilXrT_w8,"
    <img id = 'img_b1' width = 18% height = 32% style = 'position:absolute;top:10%;left:25%'>
    <img id = 'img_b2' width = 18% height = 32% style = 'position:absolute;top:10%;right:25%'>
    <img id = 'img_b3' width = 18% height = 32% style = 'position:absolute;bottom:10%;left:25%'>
    <img id = 'img_b4' width = 18% height = 32% style = 'position:absolute;bottom:10%;right:25%'>
    <div id = 'cum' style = 'position:absolute;top:5%;right:5%;font-size:calc(18px + 6 * ((100vw - 320px) / 680))'></div>
  ","""","""","""","""","""","""","""","""","""","2021-05-05 14:19:58",122.171.187.138,"Mozilla/5.0 (X11; Linux x86_64) AppleWebKit/537.36 (KHTML, like Gecko) Chrome/90.0.4430.93 Safari/537.36",WebKit,Chrome,90.0.4430.93,Linux,
52,1,null,null,html-keyboard-response,82,21484528,0.0-82.0,IwAR27Ffc460h0P5mQ7CnBoDOTf6MY3Lv-Usgw-QwnloaNchmFLiMilXrT_w8,"
    <img id = 'img_b1' width = 18% height = 32% style = 'position:absolute;top:10%;left:25%'>
    <img id = 'img_b2' width = 18% height = 32% style = 'position:absolute;top:10%;right:25%'>
    <img id = 'img_b3' width = 18% height = 32% style = 'position:absolute;bottom:10%;left:25%'>
    <img id = 'img_b4' width = 18% height = 32% style = 'position:absolute;bottom:10%;right:25%'>
    <div id = 'band_txt'></div>
    <div id = 'cum' style = 'position:absolute;top:5%;right:5%;font-size:calc(18px + 6 * ((100vw - 320px) / 680))'></div>
  ","""","""","""","""","""","""","""","""","""","2021-05-05 14:19:58",122.171.187.138,"Mozilla/5.0 (X11; Linux x86_64) AppleWebKit/537.36 (KHTML, like Gecko) Chrome/90.0.4430.93 Safari/537.36",WebKit,Chrome,90.0.4430.93,Linux,
52,1,null,null,html-keyboard-response,83,21486031,0.0-83.0,IwAR27Ffc460h0P5mQ7CnBoDOTf6MY3Lv-Usgw-QwnloaNchmFLiMilXrT_w8,"<div style=""font-size:60px;"">+</div>","""","""","""","""","""","""","""","""","""","2021-05-05 14:19:58",122.171.187.138,"Mozilla/5.0 (X11; Linux x86_64) AppleWebKit/537.36 (KHTML, like Gecko) Chrome/90.0.4430.93 Safari/537.36",WebKit,Chrome,90.0.4430.93,Linux,
52,1,250.95500000193715,z,html-keyboard-response,84,21486284,0.0-84.0,IwAR27Ffc460h0P5mQ7CnBoDOTf6MY3Lv-Usgw-QwnloaNchmFLiMilXrT_w8,"
    <img id = 'img_b1' width = 18% height = 32% style = 'position:absolute;top:10%;left:25%'>
    <img id = 'img_b2' width = 18% height = 32% style = 'position:absolute;top:10%;right:25%'>
    <img id = 'img_b3' width = 18% height = 32% style = 'position:absolute;bottom:10%;left:25%'>
    <img id = 'img_b4' width = 18% height = 32% style = 'position:absolute;bottom:10%;right:25%'>
    <div id = 'cum' style = 'position:absolute;top:5%;right:5%;font-size:calc(18px + 6 * ((100vw - 320px) / 680))'></div>
  ","""","""","""","""","""","""","""","""","""","2021-05-05 14:19:58",122.171.187.138,"Mozilla/5.0 (X11; Linux x86_64) AppleWebKit/537.36 (KHTML, like Gecko) Chrome/90.0.4430.93 Safari/537.36",WebKit,Chrome,90.0.4430.93,Linux,
52,1,null,null,html-keyboard-response,85,21487789,0.0-85.0,IwAR27Ffc460h0P5mQ7CnBoDOTf6MY3Lv-Usgw-QwnloaNchmFLiMilXrT_w8,"
    <img id = 'img_b1' width = 18% height = 32% style = 'position:absolute;top:10%;left:25%'>
    <img id = 'img_b2' width = 18% height = 32% style = 'position:absolute;top:10%;right:25%'>
    <img id = 'img_b3' width = 18% height = 32% style = 'position:absolute;bottom:10%;left:25%'>
    <img id = 'img_b4' width = 18% height = 32% style = 'position:absolute;bottom:10%;right:25%'>
    <div id = 'band_txt'></div>
    <div id = 'cum' style = 'position:absolute;top:5%;right:5%;font-size:calc(18px + 6 * ((100vw - 320px) / 680))'></div>
  ","""","""","""","""","""","""","""","""","""","2021-05-05 14:19:58",122.171.187.138,"Mozilla/5.0 (X11; Linux x86_64) AppleWebKit/537.36 (KHTML, like Gecko) Chrome/90.0.4430.93 Safari/537.36",WebKit,Chrome,90.0.4430.93,Linux,
52,1,null,null,html-keyboard-response,86,21488542,0.0-86.0,IwAR27Ffc460h0P5mQ7CnBoDOTf6MY3Lv-Usgw-QwnloaNchmFLiMilXrT_w8,"<div style=""font-size:60px;"">+</div>","""","""","""","""","""","""","""","""","""","2021-05-05 14:19:58",122.171.187.138,"Mozilla/5.0 (X11; Linux x86_64) AppleWebKit/537.36 (KHTML, like Gecko) Chrome/90.0.4430.93 Safari/537.36",WebKit,Chrome,90.0.4430.93,Linux,
52,1,446.9400000013411,z,html-keyboard-response,87,21488997,0.0-87.0,IwAR27Ffc460h0P5mQ7CnBoDOTf6MY3Lv-Usgw-QwnloaNchmFLiMilXrT_w8,"
    <img id = 'img_b1' width = 18% height = 32% style = 'position:absolute;top:10%;left:25%'>
    <img id = 'img_b2' width = 18% height = 32% style = 'position:absolute;top:10%;right:25%'>
    <img id = 'img_b3' width = 18% height = 32% style = 'position:absolute;bottom:10%;left:25%'>
    <img id = 'img_b4' width = 18% height = 32% style = 'position:absolute;bottom:10%;right:25%'>
    <div id = 'cum' style = 'position:absolute;top:5%;right:5%;font-size:calc(18px + 6 * ((100vw - 320px) / 680))'></div>
  ","""","""","""","""","""","""","""","""","""","2021-05-05 14:19:58",122.171.187.138,"Mozilla/5.0 (X11; Linux x86_64) AppleWebKit/537.36 (KHTML, like Gecko) Chrome/90.0.4430.93 Safari/537.36",WebKit,Chrome,90.0.4430.93,Linux,
52,1,null,null,html-keyboard-response,88,21490500,0.0-88.0,IwAR27Ffc460h0P5mQ7CnBoDOTf6MY3Lv-Usgw-QwnloaNchmFLiMilXrT_w8,"
    <img id = 'img_b1' width = 18% height = 32% style = 'position:absolute;top:10%;left:25%'>
    <img id = 'img_b2' width = 18% height = 32% style = 'position:absolute;top:10%;right:25%'>
    <img id = 'img_b3' width = 18% height = 32% style = 'position:absolute;bottom:10%;left:25%'>
    <img id = 'img_b4' width = 18% height = 32% style = 'position:absolute;bottom:10%;right:25%'>
    <div id = 'band_txt'></div>
    <div id = 'cum' style = 'position:absolute;top:5%;right:5%;font-size:calc(18px + 6 * ((100vw - 320px) / 680))'></div>
  ","""","""","""","""","""","""","""","""","""","2021-05-05 14:19:58",122.171.187.138,"Mozilla/5.0 (X11; Linux x86_64) AppleWebKit/537.36 (KHTML, like Gecko) Chrome/90.0.4430.93 Safari/537.36",WebKit,Chrome,90.0.4430.93,Linux,
52,1,null,null,html-keyboard-response,89,21491753,0.0-89.0,IwAR27Ffc460h0P5mQ7CnBoDOTf6MY3Lv-Usgw-QwnloaNchmFLiMilXrT_w8,"<div style=""font-size:60px;"">+</div>","""","""","""","""","""","""","""","""","""","2021-05-05 14:19:58",122.171.187.138,"Mozilla/5.0 (X11; Linux x86_64) AppleWebKit/537.36 (KHTML, like Gecko) Chrome/90.0.4430.93 Safari/537.36",WebKit,Chrome,90.0.4430.93,Linux,
52,1,266.695000000298,z,html-keyboard-response,90,21492022,0.0-90.0,IwAR27Ffc460h0P5mQ7CnBoDOTf6MY3Lv-Usgw-QwnloaNchmFLiMilXrT_w8,"
    <img id = 'img_b1' width = 18% height = 32% style = 'position:absolute;top:10%;left:25%'>
    <img id = 'img_b2' width = 18% height = 32% style = 'position:absolute;top:10%;right:25%'>
    <img id = 'img_b3' width = 18% height = 32% style = 'position:absolute;bottom:10%;left:25%'>
    <img id = 'img_b4' width = 18% height = 32% style = 'position:absolute;bottom:10%;right:25%'>
    <div id = 'cum' style = 'position:absolute;top:5%;right:5%;font-size:calc(18px + 6 * ((100vw - 320px) / 680))'></div>
  ","""","""","""","""","""","""","""","""","""","2021-05-05 14:19:58",122.171.187.138,"Mozilla/5.0 (X11; Linux x86_64) AppleWebKit/537.36 (KHTML, like Gecko) Chrome/90.0.4430.93 Safari/537.36",WebKit,Chrome,90.0.4430.93,Linux,
52,1,null,null,html-keyboard-response,91,21493527,0.0-91.0,IwAR27Ffc460h0P5mQ7CnBoDOTf6MY3Lv-Usgw-QwnloaNchmFLiMilXrT_w8,"
    <img id = 'img_b1' width = 18% height = 32% style = 'position:absolute;top:10%;left:25%'>
    <img id = 'img_b2' width = 18% height = 32% style = 'position:absolute;top:10%;right:25%'>
    <img id = 'img_b3' width = 18% height = 32% style = 'position:absolute;bottom:10%;left:25%'>
    <img id = 'img_b4' width = 18% height = 32% style = 'position:absolute;bottom:10%;right:25%'>
    <div id = 'band_txt'></div>
    <div id = 'cum' style = 'position:absolute;top:5%;right:5%;font-size:calc(18px + 6 * ((100vw - 320px) / 680))'></div>
  ","""","""","""","""","""","""","""","""","""","2021-05-05 14:19:58",122.171.187.138,"Mozilla/5.0 (X11; Linux x86_64) AppleWebKit/537.36 (KHTML, like Gecko) Chrome/90.0.4430.93 Safari/537.36",WebKit,Chrome,90.0.4430.93,Linux,
52,1,null,null,html-keyboard-response,92,21495280,0.0-92.0,IwAR27Ffc460h0P5mQ7CnBoDOTf6MY3Lv-Usgw-QwnloaNchmFLiMilXrT_w8,"<div style=""font-size:60px;"">+</div>","""","""","""","""","""","""","""","""","""","2021-05-05 14:19:58",122.171.187.138,"Mozilla/5.0 (X11; Linux x86_64) AppleWebKit/537.36 (KHTML, like Gecko) Chrome/90.0.4430.93 Safari/537.36",WebKit,Chrome,90.0.4430.93,Linux,
52,1,240.99500000104308,z,html-keyboard-response,93,21495532,0.0-93.0,IwAR27Ffc460h0P5mQ7CnBoDOTf6MY3Lv-Usgw-QwnloaNchmFLiMilXrT_w8,"
    <img id = 'img_b1' width = 18% height = 32% style = 'position:absolute;top:10%;left:25%'>
    <img id = 'img_b2' width = 18% height = 32% style = 'position:absolute;top:10%;right:25%'>
    <img id = 'img_b3' width = 18% height = 32% style = 'position:absolute;bottom:10%;left:25%'>
    <img id = 'img_b4' width = 18% height = 32% style = 'position:absolute;bottom:10%;right:25%'>
    <div id = 'cum' style = 'position:absolute;top:5%;right:5%;font-size:calc(18px + 6 * ((100vw - 320px) / 680))'></div>
  ","""","""","""","""","""","""","""","""","""","2021-05-05 14:19:58",122.171.187.138,"Mozilla/5.0 (X11; Linux x86_64) AppleWebKit/537.36 (KHTML, like Gecko) Chrome/90.0.4430.93 Safari/537.36",WebKit,Chrome,90.0.4430.93,Linux,
52,1,null,null,html-keyboard-response,94,21497037,0.0-94.0,IwAR27Ffc460h0P5mQ7CnBoDOTf6MY3Lv-Usgw-QwnloaNchmFLiMilXrT_w8,"
    <img id = 'img_b1' width = 18% height = 32% style = 'position:absolute;top:10%;left:25%'>
    <img id = 'img_b2' width = 18% height = 32% style = 'position:absolute;top:10%;right:25%'>
    <img id = 'img_b3' width = 18% height = 32% style = 'position:absolute;bottom:10%;left:25%'>
    <img id = 'img_b4' width = 18% height = 32% style = 'position:absolute;bottom:10%;right:25%'>
    <div id = 'band_txt'></div>
    <div id = 'cum' style = 'position:absolute;top:5%;right:5%;font-size:calc(18px + 6 * ((100vw - 320px) / 680))'></div>
  ","""","""","""","""","""","""","""","""","""","2021-05-05 14:19:58",122.171.187.138,"Mozilla/5.0 (X11; Linux x86_64) AppleWebKit/537.36 (KHTML, like Gecko) Chrome/90.0.4430.93 Safari/537.36",WebKit,Chrome,90.0.4430.93,Linux,
52,1,null,null,html-keyboard-response,95,21498290,0.0-95.0,IwAR27Ffc460h0P5mQ7CnBoDOTf6MY3Lv-Usgw-QwnloaNchmFLiMilXrT_w8,"<div style=""font-size:60px;"">+</div>","""","""","""","""","""","""","""","""","""","2021-05-05 14:19:58",122.171.187.138,"Mozilla/5.0 (X11; Linux x86_64) AppleWebKit/537.36 (KHTML, like Gecko) Chrome/90.0.4430.93 Safari/537.36",WebKit,Chrome,90.0.4430.93,Linux,
52,1,422.46000000089407,z,html-keyboard-response,96,21498716,0.0-96.0,IwAR27Ffc460h0P5mQ7CnBoDOTf6MY3Lv-Usgw-QwnloaNchmFLiMilXrT_w8,"
    <img id = 'img_b1' width = 18% height = 32% style = 'position:absolute;top:10%;left:25%'>
    <img id = 'img_b2' width = 18% height = 32% style = 'position:absolute;top:10%;right:25%'>
    <img id = 'img_b3' width = 18% height = 32% style = 'position:absolute;bottom:10%;left:25%'>
    <img id = 'img_b4' width = 18% height = 32% style = 'position:absolute;bottom:10%;right:25%'>
    <div id = 'cum' style = 'position:absolute;top:5%;right:5%;font-size:calc(18px + 6 * ((100vw - 320px) / 680))'></div>
  ","""","""","""","""","""","""","""","""","""","2021-05-05 14:19:58",122.171.187.138,"Mozilla/5.0 (X11; Linux x86_64) AppleWebKit/537.36 (KHTML, like Gecko) Chrome/90.0.4430.93 Safari/537.36",WebKit,Chrome,90.0.4430.93,Linux,
52,1,null,null,html-keyboard-response,97,21500220,0.0-97.0,IwAR27Ffc460h0P5mQ7CnBoDOTf6MY3Lv-Usgw-QwnloaNchmFLiMilXrT_w8,"
    <img id = 'img_b1' width = 18% height = 32% style = 'position:absolute;top:10%;left:25%'>
    <img id = 'img_b2' width = 18% height = 32% style = 'position:absolute;top:10%;right:25%'>
    <img id = 'img_b3' width = 18% height = 32% style = 'position:absolute;bottom:10%;left:25%'>
    <img id = 'img_b4' width = 18% height = 32% style = 'position:absolute;bottom:10%;right:25%'>
    <div id = 'band_txt'></div>
    <div id = 'cum' style = 'position:absolute;top:5%;right:5%;font-size:calc(18px + 6 * ((100vw - 320px) / 680))'></div>
  ","""","""","""","""","""","""","""","""","""","2021-05-05 14:19:58",122.171.187.138,"Mozilla/5.0 (X11; Linux x86_64) AppleWebKit/537.36 (KHTML, like Gecko) Chrome/90.0.4430.93 Safari/537.36",WebKit,Chrome,90.0.4430.93,Linux,
52,1,null,null,html-keyboard-response,98,21501222,0.0-98.0,IwAR27Ffc460h0P5mQ7CnBoDOTf6MY3Lv-Usgw-QwnloaNchmFLiMilXrT_w8,"<div style=""font-size:60px;"">+</div>","""","""","""","""","""","""","""","""","""","2021-05-05 14:19:58",122.171.187.138,"Mozilla/5.0 (X11; Linux x86_64) AppleWebKit/537.36 (KHTML, like Gecko) Chrome/90.0.4430.93 Safari/537.36",WebKit,Chrome,90.0.4430.93,Linux,
52,1,221.0950000025332,m,html-keyboard-response,99,21501452,0.0-99.0,IwAR27Ffc460h0P5mQ7CnBoDOTf6MY3Lv-Usgw-QwnloaNchmFLiMilXrT_w8,"
    <img id = 'img_b1' width = 18% height = 32% style = 'position:absolute;top:10%;left:25%'>
    <img id = 'img_b2' width = 18% height = 32% style = 'position:absolute;top:10%;right:25%'>
    <img id = 'img_b3' width = 18% height = 32% style = 'position:absolute;bottom:10%;left:25%'>
    <img id = 'img_b4' width = 18% height = 32% style = 'position:absolute;bottom:10%;right:25%'>
    <div id = 'cum' style = 'position:absolute;top:5%;right:5%;font-size:calc(18px + 6 * ((100vw - 320px) / 680))'></div>
  ","""","""","""","""","""","""","""","""","""","2021-05-05 14:19:58",122.171.187.138,"Mozilla/5.0 (X11; Linux x86_64) AppleWebKit/537.36 (KHTML, like Gecko) Chrome/90.0.4430.93 Safari/537.36",WebKit,Chrome,90.0.4430.93,Linux,
52,1,null,null,html-keyboard-response,100,21502957,0.0-100.0,IwAR27Ffc460h0P5mQ7CnBoDOTf6MY3Lv-Usgw-QwnloaNchmFLiMilXrT_w8,"
    <img id = 'img_b1' width = 18% height = 32% style = 'position:absolute;top:10%;left:25%'>
    <img id = 'img_b2' width = 18% height = 32% style = 'position:absolute;top:10%;right:25%'>
    <img id = 'img_b3' width = 18% height = 32% style = 'position:absolute;bottom:10%;left:25%'>
    <img id = 'img_b4' width = 18% height = 32% style = 'position:absolute;bottom:10%;right:25%'>
    <div id = 'band_txt'></div>
    <div id = 'cum' style = 'position:absolute;top:5%;right:5%;font-size:calc(18px + 6 * ((100vw - 320px) / 680))'></div>
  ","""","""","""","""","""","""","""","""","""","2021-05-05 14:19:58",122.171.187.138,"Mozilla/5.0 (X11; Linux x86_64) AppleWebKit/537.36 (KHTML, like Gecko) Chrome/90.0.4430.93 Safari/537.36",WebKit,Chrome,90.0.4430.93,Linux,
52,1,null,null,html-keyboard-response,101,21504709,0.0-101.0,IwAR27Ffc460h0P5mQ7CnBoDOTf6MY3Lv-Usgw-QwnloaNchmFLiMilXrT_w8,"<div style=""font-size:60px;"">+</div>","""","""","""","""","""","""","""","""","""","2021-05-05 14:19:58",122.171.187.138,"Mozilla/5.0 (X11; Linux x86_64) AppleWebKit/537.36 (KHTML, like Gecko) Chrome/90.0.4430.93 Safari/537.36",WebKit,Chrome,90.0.4430.93,Linux,
52,1,360.30000000074506,q,html-keyboard-response,102,21505073,0.0-102.0,IwAR27Ffc460h0P5mQ7CnBoDOTf6MY3Lv-Usgw-QwnloaNchmFLiMilXrT_w8,"
    <img id = 'img_b1' width = 18% height = 32% style = 'position:absolute;top:10%;left:25%'>
    <img id = 'img_b2' width = 18% height = 32% style = 'position:absolute;top:10%;right:25%'>
    <img id = 'img_b3' width = 18% height = 32% style = 'position:absolute;bottom:10%;left:25%'>
    <img id = 'img_b4' width = 18% height = 32% style = 'position:absolute;bottom:10%;right:25%'>
    <div id = 'cum' style = 'position:absolute;top:5%;right:5%;font-size:calc(18px + 6 * ((100vw - 320px) / 680))'></div>
  ","""","""","""","""","""","""","""","""","""","2021-05-05 14:19:58",122.171.187.138,"Mozilla/5.0 (X11; Linux x86_64) AppleWebKit/537.36 (KHTML, like Gecko) Chrome/90.0.4430.93 Safari/537.36",WebKit,Chrome,90.0.4430.93,Linux,
52,1,null,null,html-keyboard-response,103,21506577,0.0-103.0,IwAR27Ffc460h0P5mQ7CnBoDOTf6MY3Lv-Usgw-QwnloaNchmFLiMilXrT_w8,"
    <img id = 'img_b1' width = 18% height = 32% style = 'position:absolute;top:10%;left:25%'>
    <img id = 'img_b2' width = 18% height = 32% style = 'position:absolute;top:10%;right:25%'>
    <img id = 'img_b3' width = 18% height = 32% style = 'position:absolute;bottom:10%;left:25%'>
    <img id = 'img_b4' width = 18% height = 32% style = 'position:absolute;bottom:10%;right:25%'>
    <div id = 'band_txt'></div>
    <div id = 'cum' style = 'position:absolute;top:5%;right:5%;font-size:calc(18px + 6 * ((100vw - 320px) / 680))'></div>
  ","""","""","""","""","""","""","""","""","""","2021-05-05 14:19:58",122.171.187.138,"Mozilla/5.0 (X11; Linux x86_64) AppleWebKit/537.36 (KHTML, like Gecko) Chrome/90.0.4430.93 Safari/537.36",WebKit,Chrome,90.0.4430.93,Linux,
52,1,null,null,html-keyboard-response,104,21507580,0.0-104.0,IwAR27Ffc460h0P5mQ7CnBoDOTf6MY3Lv-Usgw-QwnloaNchmFLiMilXrT_w8,"<div style=""font-size:60px;"">+</div>","""","""","""","""","""","""","""","""","""","2021-05-05 14:19:58",122.171.187.138,"Mozilla/5.0 (X11; Linux x86_64) AppleWebKit/537.36 (KHTML, like Gecko) Chrome/90.0.4430.93 Safari/537.36",WebKit,Chrome,90.0.4430.93,Linux,
52,1,285.94499999657273,p,html-keyboard-response,105,21507885,0.0-105.0,IwAR27Ffc460h0P5mQ7CnBoDOTf6MY3Lv-Usgw-QwnloaNchmFLiMilXrT_w8,"
    <img id = 'img_b1' width = 18% height = 32% style = 'position:absolute;top:10%;left:25%'>
    <img id = 'img_b2' width = 18% height = 32% style = 'position:absolute;top:10%;right:25%'>
    <img id = 'img_b3' width = 18% height = 32% style = 'position:absolute;bottom:10%;left:25%'>
    <img id = 'img_b4' width = 18% height = 32% style = 'position:absolute;bottom:10%;right:25%'>
    <div id = 'cum' style = 'position:absolute;top:5%;right:5%;font-size:calc(18px + 6 * ((100vw - 320px) / 680))'></div>
  ","""","""","""","""","""","""","""","""","""","2021-05-05 14:19:58",122.171.187.138,"Mozilla/5.0 (X11; Linux x86_64) AppleWebKit/537.36 (KHTML, like Gecko) Chrome/90.0.4430.93 Safari/537.36",WebKit,Chrome,90.0.4430.93,Linux,
52,1,null,null,html-keyboard-response,106,21509389,0.0-106.0,IwAR27Ffc460h0P5mQ7CnBoDOTf6MY3Lv-Usgw-QwnloaNchmFLiMilXrT_w8,"
    <img id = 'img_b1' width = 18% height = 32% style = 'position:absolute;top:10%;left:25%'>
    <img id = 'img_b2' width = 18% height = 32% style = 'position:absolute;top:10%;right:25%'>
    <img id = 'img_b3' width = 18% height = 32% style = 'position:absolute;bottom:10%;left:25%'>
    <img id = 'img_b4' width = 18% height = 32% style = 'position:absolute;bottom:10%;right:25%'>
    <div id = 'band_txt'></div>
    <div id = 'cum' style = 'position:absolute;top:5%;right:5%;font-size:calc(18px + 6 * ((100vw - 320px) / 680))'></div>
  ","""","""","""","""","""","""","""","""","""","2021-05-05 14:19:58",122.171.187.138,"Mozilla/5.0 (X11; Linux x86_64) AppleWebKit/537.36 (KHTML, like Gecko) Chrome/90.0.4430.93 Safari/537.36",WebKit,Chrome,90.0.4430.93,Linux,
52,1,null,null,html-keyboard-response,107,21511142,0.0-107.0,IwAR27Ffc460h0P5mQ7CnBoDOTf6MY3Lv-Usgw-QwnloaNchmFLiMilXrT_w8,"<div style=""font-size:60px;"">+</div>","""","""","""","""","""","""","""","""","""","2021-05-05 14:19:58",122.171.187.138,"Mozilla/5.0 (X11; Linux x86_64) AppleWebKit/537.36 (KHTML, like Gecko) Chrome/90.0.4430.93 Safari/537.36",WebKit,Chrome,90.0.4430.93,Linux,
52,1,250.26999999582767,p,html-keyboard-response,108,21511395,0.0-108.0,IwAR27Ffc460h0P5mQ7CnBoDOTf6MY3Lv-Usgw-QwnloaNchmFLiMilXrT_w8,"
    <img id = 'img_b1' width = 18% height = 32% style = 'position:absolute;top:10%;left:25%'>
    <img id = 'img_b2' width = 18% height = 32% style = 'position:absolute;top:10%;right:25%'>
    <img id = 'img_b3' width = 18% height = 32% style = 'position:absolute;bottom:10%;left:25%'>
    <img id = 'img_b4' width = 18% height = 32% style = 'position:absolute;bottom:10%;right:25%'>
    <div id = 'cum' style = 'position:absolute;top:5%;right:5%;font-size:calc(18px + 6 * ((100vw - 320px) / 680))'></div>
  ","""","""","""","""","""","""","""","""","""","2021-05-05 14:19:58",122.171.187.138,"Mozilla/5.0 (X11; Linux x86_64) AppleWebKit/537.36 (KHTML, like Gecko) Chrome/90.0.4430.93 Safari/537.36",WebKit,Chrome,90.0.4430.93,Linux,
52,1,null,null,html-keyboard-response,109,21512900,0.0-109.0,IwAR27Ffc460h0P5mQ7CnBoDOTf6MY3Lv-Usgw-QwnloaNchmFLiMilXrT_w8,"
    <img id = 'img_b1' width = 18% height = 32% style = 'position:absolute;top:10%;left:25%'>
    <img id = 'img_b2' width = 18% height = 32% style = 'position:absolute;top:10%;right:25%'>
    <img id = 'img_b3' width = 18% height = 32% style = 'position:absolute;bottom:10%;left:25%'>
    <img id = 'img_b4' width = 18% height = 32% style = 'position:absolute;bottom:10%;right:25%'>
    <div id = 'band_txt'></div>
    <div id = 'cum' style = 'position:absolute;top:5%;right:5%;font-size:calc(18px + 6 * ((100vw - 320px) / 680))'></div>
  ","""","""","""","""","""","""","""","""","""","2021-05-05 14:19:58",122.171.187.138,"Mozilla/5.0 (X11; Linux x86_64) AppleWebKit/537.36 (KHTML, like Gecko) Chrome/90.0.4430.93 Safari/537.36",WebKit,Chrome,90.0.4430.93,Linux,
52,1,null,null,html-keyboard-response,110,21513652,0.0-110.0,IwAR27Ffc460h0P5mQ7CnBoDOTf6MY3Lv-Usgw-QwnloaNchmFLiMilXrT_w8,"<div style=""font-size:60px;"">+</div>","""","""","""","""","""","""","""","""","""","2021-05-05 14:19:58",122.171.187.138,"Mozilla/5.0 (X11; Linux x86_64) AppleWebKit/537.36 (KHTML, like Gecko) Chrome/90.0.4430.93 Safari/537.36",WebKit,Chrome,90.0.4430.93,Linux,
52,1,310.88499999791384,z,html-keyboard-response,111,21513973,0.0-111.0,IwAR27Ffc460h0P5mQ7CnBoDOTf6MY3Lv-Usgw-QwnloaNchmFLiMilXrT_w8,"
    <img id = 'img_b1' width = 18% height = 32% style = 'position:absolute;top:10%;left:25%'>
    <img id = 'img_b2' width = 18% height = 32% style = 'position:absolute;top:10%;right:25%'>
    <img id = 'img_b3' width = 18% height = 32% style = 'position:absolute;bottom:10%;left:25%'>
    <img id = 'img_b4' width = 18% height = 32% style = 'position:absolute;bottom:10%;right:25%'>
    <div id = 'cum' style = 'position:absolute;top:5%;right:5%;font-size:calc(18px + 6 * ((100vw - 320px) / 680))'></div>
  ","""","""","""","""","""","""","""","""","""","2021-05-05 14:19:58",122.171.187.138,"Mozilla/5.0 (X11; Linux x86_64) AppleWebKit/537.36 (KHTML, like Gecko) Chrome/90.0.4430.93 Safari/537.36",WebKit,Chrome,90.0.4430.93,Linux,
52,1,null,null,html-keyboard-response,112,21515479,0.0-112.0,IwAR27Ffc460h0P5mQ7CnBoDOTf6MY3Lv-Usgw-QwnloaNchmFLiMilXrT_w8,"
    <img id = 'img_b1' width = 18% height = 32% style = 'position:absolute;top:10%;left:25%'>
    <img id = 'img_b2' width = 18% height = 32% style = 'position:absolute;top:10%;right:25%'>
    <img id = 'img_b3' width = 18% height = 32% style = 'position:absolute;bottom:10%;left:25%'>
    <img id = 'img_b4' width = 18% height = 32% style = 'position:absolute;bottom:10%;right:25%'>
    <div id = 'band_txt'></div>
    <div id = 'cum' style = 'position:absolute;top:5%;right:5%;font-size:calc(18px + 6 * ((100vw - 320px) / 680))'></div>
  ","""","""","""","""","""","""","""","""","""","2021-05-05 14:19:58",122.171.187.138,"Mozilla/5.0 (X11; Linux x86_64) AppleWebKit/537.36 (KHTML, like Gecko) Chrome/90.0.4430.93 Safari/537.36",WebKit,Chrome,90.0.4430.93,Linux,
52,1,null,null,html-keyboard-response,113,21516481,0.0-113.0,IwAR27Ffc460h0P5mQ7CnBoDOTf6MY3Lv-Usgw-QwnloaNchmFLiMilXrT_w8,"<div style=""font-size:60px;"">+</div>","""","""","""","""","""","""","""","""","""","2021-05-05 14:19:58",122.171.187.138,"Mozilla/5.0 (X11; Linux x86_64) AppleWebKit/537.36 (KHTML, like Gecko) Chrome/90.0.4430.93 Safari/537.36",WebKit,Chrome,90.0.4430.93,Linux,
52,1,176.4049999974668,z,html-keyboard-response,114,21516660,0.0-114.0,IwAR27Ffc460h0P5mQ7CnBoDOTf6MY3Lv-Usgw-QwnloaNchmFLiMilXrT_w8,"
    <img id = 'img_b1' width = 18% height = 32% style = 'position:absolute;top:10%;left:25%'>
    <img id = 'img_b2' width = 18% height = 32% style = 'position:absolute;top:10%;right:25%'>
    <img id = 'img_b3' width = 18% height = 32% style = 'position:absolute;bottom:10%;left:25%'>
    <img id = 'img_b4' width = 18% height = 32% style = 'position:absolute;bottom:10%;right:25%'>
    <div id = 'cum' style = 'position:absolute;top:5%;right:5%;font-size:calc(18px + 6 * ((100vw - 320px) / 680))'></div>
  ","""","""","""","""","""","""","""","""","""","2021-05-05 14:19:58",122.171.187.138,"Mozilla/5.0 (X11; Linux x86_64) AppleWebKit/537.36 (KHTML, like Gecko) Chrome/90.0.4430.93 Safari/537.36",WebKit,Chrome,90.0.4430.93,Linux,
52,1,null,null,html-keyboard-response,115,21518165,0.0-115.0,IwAR27Ffc460h0P5mQ7CnBoDOTf6MY3Lv-Usgw-QwnloaNchmFLiMilXrT_w8,"
    <img id = 'img_b1' width = 18% height = 32% style = 'position:absolute;top:10%;left:25%'>
    <img id = 'img_b2' width = 18% height = 32% style = 'position:absolute;top:10%;right:25%'>
    <img id = 'img_b3' width = 18% height = 32% style = 'position:absolute;bottom:10%;left:25%'>
    <img id = 'img_b4' width = 18% height = 32% style = 'position:absolute;bottom:10%;right:25%'>
    <div id = 'band_txt'></div>
    <div id = 'cum' style = 'position:absolute;top:5%;right:5%;font-size:calc(18px + 6 * ((100vw - 320px) / 680))'></div>
  ","""","""","""","""","""","""","""","""","""","2021-05-05 14:19:58",122.171.187.138,"Mozilla/5.0 (X11; Linux x86_64) AppleWebKit/537.36 (KHTML, like Gecko) Chrome/90.0.4430.93 Safari/537.36",WebKit,Chrome,90.0.4430.93,Linux,
52,1,null,null,html-keyboard-response,116,21519668,0.0-116.0,IwAR27Ffc460h0P5mQ7CnBoDOTf6MY3Lv-Usgw-QwnloaNchmFLiMilXrT_w8,"<div style=""font-size:60px;"">+</div>","""","""","""","""","""","""","""","""","""","2021-05-05 14:19:58",122.171.187.138,"Mozilla/5.0 (X11; Linux x86_64) AppleWebKit/537.36 (KHTML, like Gecko) Chrome/90.0.4430.93 Safari/537.36",WebKit,Chrome,90.0.4430.93,Linux,
52,1,249.1300000026822,z,html-keyboard-response,117,21519945,0.0-117.0,IwAR27Ffc460h0P5mQ7CnBoDOTf6MY3Lv-Usgw-QwnloaNchmFLiMilXrT_w8,"
    <img id = 'img_b1' width = 18% height = 32% style = 'position:absolute;top:10%;left:25%'>
    <img id = 'img_b2' width = 18% height = 32% style = 'position:absolute;top:10%;right:25%'>
    <img id = 'img_b3' width = 18% height = 32% style = 'position:absolute;bottom:10%;left:25%'>
    <img id = 'img_b4' width = 18% height = 32% style = 'position:absolute;bottom:10%;right:25%'>
    <div id = 'cum' style = 'position:absolute;top:5%;right:5%;font-size:calc(18px + 6 * ((100vw - 320px) / 680))'></div>
  ","""","""","""","""","""","""","""","""","""","2021-05-05 14:19:58",122.171.187.138,"Mozilla/5.0 (X11; Linux x86_64) AppleWebKit/537.36 (KHTML, like Gecko) Chrome/90.0.4430.93 Safari/537.36",WebKit,Chrome,90.0.4430.93,Linux,
52,1,null,null,html-keyboard-response,118,21521450,0.0-118.0,IwAR27Ffc460h0P5mQ7CnBoDOTf6MY3Lv-Usgw-QwnloaNchmFLiMilXrT_w8,"
    <img id = 'img_b1' width = 18% height = 32% style = 'position:absolute;top:10%;left:25%'>
    <img id = 'img_b2' width = 18% height = 32% style = 'position:absolute;top:10%;right:25%'>
    <img id = 'img_b3' width = 18% height = 32% style = 'position:absolute;bottom:10%;left:25%'>
    <img id = 'img_b4' width = 18% height = 32% style = 'position:absolute;bottom:10%;right:25%'>
    <div id = 'band_txt'></div>
    <div id = 'cum' style = 'position:absolute;top:5%;right:5%;font-size:calc(18px + 6 * ((100vw - 320px) / 680))'></div>
  ","""","""","""","""","""","""","""","""","""","2021-05-05 14:19:58",122.171.187.138,"Mozilla/5.0 (X11; Linux x86_64) AppleWebKit/537.36 (KHTML, like Gecko) Chrome/90.0.4430.93 Safari/537.36",WebKit,Chrome,90.0.4430.93,Linux,
52,1,null,null,html-keyboard-response,119,21522703,0.0-119.0,IwAR27Ffc460h0P5mQ7CnBoDOTf6MY3Lv-Usgw-QwnloaNchmFLiMilXrT_w8,"<div style=""font-size:60px;"">+</div>","""","""","""","""","""","""","""","""","""","2021-05-05 14:19:58",122.171.187.138,"Mozilla/5.0 (X11; Linux x86_64) AppleWebKit/537.36 (KHTML, like Gecko) Chrome/90.0.4430.93 Safari/537.36",WebKit,Chrome,90.0.4430.93,Linux,
52,1,255.07999999821186,z,html-keyboard-response,120,21522961,0.0-120.0,IwAR27Ffc460h0P5mQ7CnBoDOTf6MY3Lv-Usgw-QwnloaNchmFLiMilXrT_w8,"
    <img id = 'img_b1' width = 18% height = 32% style = 'position:absolute;top:10%;left:25%'>
    <img id = 'img_b2' width = 18% height = 32% style = 'position:absolute;top:10%;right:25%'>
    <img id = 'img_b3' width = 18% height = 32% style = 'position:absolute;bottom:10%;left:25%'>
    <img id = 'img_b4' width = 18% height = 32% style = 'position:absolute;bottom:10%;right:25%'>
    <div id = 'cum' style = 'position:absolute;top:5%;right:5%;font-size:calc(18px + 6 * ((100vw - 320px) / 680))'></div>
  ","""","""","""","""","""","""","""","""","""","2021-05-05 14:19:58",122.171.187.138,"Mozilla/5.0 (X11; Linux x86_64) AppleWebKit/537.36 (KHTML, like Gecko) Chrome/90.0.4430.93 Safari/537.36",WebKit,Chrome,90.0.4430.93,Linux,
52,1,null,null,html-keyboard-response,121,21524465,0.0-121.0,IwAR27Ffc460h0P5mQ7CnBoDOTf6MY3Lv-Usgw-QwnloaNchmFLiMilXrT_w8,"
    <img id = 'img_b1' width = 18% height = 32% style = 'position:absolute;top:10%;left:25%'>
    <img id = 'img_b2' width = 18% height = 32% style = 'position:absolute;top:10%;right:25%'>
    <img id = 'img_b3' width = 18% height = 32% style = 'position:absolute;bottom:10%;left:25%'>
    <img id = 'img_b4' width = 18% height = 32% style = 'position:absolute;bottom:10%;right:25%'>
    <div id = 'band_txt'></div>
    <div id = 'cum' style = 'position:absolute;top:5%;right:5%;font-size:calc(18px + 6 * ((100vw - 320px) / 680))'></div>
  ","""","""","""","""","""","""","""","""","""","2021-05-05 14:19:58",122.171.187.138,"Mozilla/5.0 (X11; Linux x86_64) AppleWebKit/537.36 (KHTML, like Gecko) Chrome/90.0.4430.93 Safari/537.36",WebKit,Chrome,90.0.4430.93,Linux,
52,1,null,null,html-keyboard-response,122,21525468,0.0-122.0,IwAR27Ffc460h0P5mQ7CnBoDOTf6MY3Lv-Usgw-QwnloaNchmFLiMilXrT_w8,"<div style=""font-size:60px;"">+</div>","""","""","""","""","""","""","""","""","""","2021-05-05 14:19:58",122.171.187.138,"Mozilla/5.0 (X11; Linux x86_64) AppleWebKit/537.36 (KHTML, like Gecko) Chrome/90.0.4430.93 Safari/537.36",WebKit,Chrome,90.0.4430.93,Linux,
52,1,337.2549999989569,z,html-keyboard-response,123,21525808,0.0-123.0,IwAR27Ffc460h0P5mQ7CnBoDOTf6MY3Lv-Usgw-QwnloaNchmFLiMilXrT_w8,"
    <img id = 'img_b1' width = 18% height = 32% style = 'position:absolute;top:10%;left:25%'>
    <img id = 'img_b2' width = 18% height = 32% style = 'position:absolute;top:10%;right:25%'>
    <img id = 'img_b3' width = 18% height = 32% style = 'position:absolute;bottom:10%;left:25%'>
    <img id = 'img_b4' width = 18% height = 32% style = 'position:absolute;bottom:10%;right:25%'>
    <div id = 'cum' style = 'position:absolute;top:5%;right:5%;font-size:calc(18px + 6 * ((100vw - 320px) / 680))'></div>
  ","""","""","""","""","""","""","""","""","""","2021-05-05 14:19:58",122.171.187.138,"Mozilla/5.0 (X11; Linux x86_64) AppleWebKit/537.36 (KHTML, like Gecko) Chrome/90.0.4430.93 Safari/537.36",WebKit,Chrome,90.0.4430.93,Linux,
52,1,null,null,html-keyboard-response,124,21527341,0.0-124.0,IwAR27Ffc460h0P5mQ7CnBoDOTf6MY3Lv-Usgw-QwnloaNchmFLiMilXrT_w8,"
    <img id = 'img_b1' width = 18% height = 32% style = 'position:absolute;top:10%;left:25%'>
    <img id = 'img_b2' width = 18% height = 32% style = 'position:absolute;top:10%;right:25%'>
    <img id = 'img_b3' width = 18% height = 32% style = 'position:absolute;bottom:10%;left:25%'>
    <img id = 'img_b4' width = 18% height = 32% style = 'position:absolute;bottom:10%;right:25%'>
    <div id = 'band_txt'></div>
    <div id = 'cum' style = 'position:absolute;top:5%;right:5%;font-size:calc(18px + 6 * ((100vw - 320px) / 680))'></div>
  ","""","""","""","""","""","""","""","""","""","2021-05-05 14:19:58",122.171.187.138,"Mozilla/5.0 (X11; Linux x86_64) AppleWebKit/537.36 (KHTML, like Gecko) Chrome/90.0.4430.93 Safari/537.36",WebKit,Chrome,90.0.4430.93,Linux,
52,1,null,null,html-keyboard-response,125,21529093,0.0-125.0,IwAR27Ffc460h0P5mQ7CnBoDOTf6MY3Lv-Usgw-QwnloaNchmFLiMilXrT_w8,"<div style=""font-size:60px;"">+</div>","""","""","""","""","""","""","""","""","""","2021-05-05 14:19:58",122.171.187.138,"Mozilla/5.0 (X11; Linux x86_64) AppleWebKit/537.36 (KHTML, like Gecko) Chrome/90.0.4430.93 Safari/537.36",WebKit,Chrome,90.0.4430.93,Linux,
52,1,165.10500000044703,z,html-keyboard-response,126,21529262,0.0-126.0,IwAR27Ffc460h0P5mQ7CnBoDOTf6MY3Lv-Usgw-QwnloaNchmFLiMilXrT_w8,"
    <img id = 'img_b1' width = 18% height = 32% style = 'position:absolute;top:10%;left:25%'>
    <img id = 'img_b2' width = 18% height = 32% style = 'position:absolute;top:10%;right:25%'>
    <img id = 'img_b3' width = 18% height = 32% style = 'position:absolute;bottom:10%;left:25%'>
    <img id = 'img_b4' width = 18% height = 32% style = 'position:absolute;bottom:10%;right:25%'>
    <div id = 'cum' style = 'position:absolute;top:5%;right:5%;font-size:calc(18px + 6 * ((100vw - 320px) / 680))'></div>
  ","""","""","""","""","""","""","""","""","""","2021-05-05 14:19:58",122.171.187.138,"Mozilla/5.0 (X11; Linux x86_64) AppleWebKit/537.36 (KHTML, like Gecko) Chrome/90.0.4430.93 Safari/537.36",WebKit,Chrome,90.0.4430.93,Linux,
52,1,null,null,html-keyboard-response,127,21530767,0.0-127.0,IwAR27Ffc460h0P5mQ7CnBoDOTf6MY3Lv-Usgw-QwnloaNchmFLiMilXrT_w8,"
    <img id = 'img_b1' width = 18% height = 32% style = 'position:absolute;top:10%;left:25%'>
    <img id = 'img_b2' width = 18% height = 32% style = 'position:absolute;top:10%;right:25%'>
    <img id = 'img_b3' width = 18% height = 32% style = 'position:absolute;bottom:10%;left:25%'>
    <img id = 'img_b4' width = 18% height = 32% style = 'position:absolute;bottom:10%;right:25%'>
    <div id = 'band_txt'></div>
    <div id = 'cum' style = 'position:absolute;top:5%;right:5%;font-size:calc(18px + 6 * ((100vw - 320px) / 680))'></div>
  ","""","""","""","""","""","""","""","""","""","2021-05-05 14:19:58",122.171.187.138,"Mozilla/5.0 (X11; Linux x86_64) AppleWebKit/537.36 (KHTML, like Gecko) Chrome/90.0.4430.93 Safari/537.36",WebKit,Chrome,90.0.4430.93,Linux,
52,1,null,null,html-keyboard-response,128,21531519,0.0-128.0,IwAR27Ffc460h0P5mQ7CnBoDOTf6MY3Lv-Usgw-QwnloaNchmFLiMilXrT_w8,"<div style=""font-size:60px;"">+</div>","""","""","""","""","""","""","""","""","""","2021-05-05 14:19:58",122.171.187.138,"Mozilla/5.0 (X11; Linux x86_64) AppleWebKit/537.36 (KHTML, like Gecko) Chrome/90.0.4430.93 Safari/537.36",WebKit,Chrome,90.0.4430.93,Linux,
52,1,302.9949999973178,z,html-keyboard-response,129,21531826,0.0-129.0,IwAR27Ffc460h0P5mQ7CnBoDOTf6MY3Lv-Usgw-QwnloaNchmFLiMilXrT_w8,"
    <img id = 'img_b1' width = 18% height = 32% style = 'position:absolute;top:10%;left:25%'>
    <img id = 'img_b2' width = 18% height = 32% style = 'position:absolute;top:10%;right:25%'>
    <img id = 'img_b3' width = 18% height = 32% style = 'position:absolute;bottom:10%;left:25%'>
    <img id = 'img_b4' width = 18% height = 32% style = 'position:absolute;bottom:10%;right:25%'>
    <div id = 'cum' style = 'position:absolute;top:5%;right:5%;font-size:calc(18px + 6 * ((100vw - 320px) / 680))'></div>
  ","""","""","""","""","""","""","""","""","""","2021-05-05 14:19:58",122.171.187.138,"Mozilla/5.0 (X11; Linux x86_64) AppleWebKit/537.36 (KHTML, like Gecko) Chrome/90.0.4430.93 Safari/537.36",WebKit,Chrome,90.0.4430.93,Linux,
52,1,null,null,html-keyboard-response,130,21533359,0.0-130.0,IwAR27Ffc460h0P5mQ7CnBoDOTf6MY3Lv-Usgw-QwnloaNchmFLiMilXrT_w8,"
    <img id = 'img_b1' width = 18% height = 32% style = 'position:absolute;top:10%;left:25%'>
    <img id = 'img_b2' width = 18% height = 32% style = 'position:absolute;top:10%;right:25%'>
    <img id = 'img_b3' width = 18% height = 32% style = 'position:absolute;bottom:10%;left:25%'>
    <img id = 'img_b4' width = 18% height = 32% style = 'position:absolute;bottom:10%;right:25%'>
    <div id = 'band_txt'></div>
    <div id = 'cum' style = 'position:absolute;top:5%;right:5%;font-size:calc(18px + 6 * ((100vw - 320px) / 680))'></div>
  ","""","""","""","""","""","""","""","""","""","2021-05-05 14:19:58",122.171.187.138,"Mozilla/5.0 (X11; Linux x86_64) AppleWebKit/537.36 (KHTML, like Gecko) Chrome/90.0.4430.93 Safari/537.36",WebKit,Chrome,90.0.4430.93,Linux,
52,1,null,null,html-keyboard-response,131,21534612,0.0-131.0,IwAR27Ffc460h0P5mQ7CnBoDOTf6MY3Lv-Usgw-QwnloaNchmFLiMilXrT_w8,"<div style=""font-size:60px;"">+</div>","""","""","""","""","""","""","""","""","""","2021-05-05 14:19:58",122.171.187.138,"Mozilla/5.0 (X11; Linux x86_64) AppleWebKit/537.36 (KHTML, like Gecko) Chrome/90.0.4430.93 Safari/537.36",WebKit,Chrome,90.0.4430.93,Linux,
52,1,349.375,z,html-keyboard-response,132,21534964,0.0-132.0,IwAR27Ffc460h0P5mQ7CnBoDOTf6MY3Lv-Usgw-QwnloaNchmFLiMilXrT_w8,"
    <img id = 'img_b1' width = 18% height = 32% style = 'position:absolute;top:10%;left:25%'>
    <img id = 'img_b2' width = 18% height = 32% style = 'position:absolute;top:10%;right:25%'>
    <img id = 'img_b3' width = 18% height = 32% style = 'position:absolute;bottom:10%;left:25%'>
    <img id = 'img_b4' width = 18% height = 32% style = 'position:absolute;bottom:10%;right:25%'>
    <div id = 'cum' style = 'position:absolute;top:5%;right:5%;font-size:calc(18px + 6 * ((100vw - 320px) / 680))'></div>
  ","""","""","""","""","""","""","""","""","""","2021-05-05 14:19:58",122.171.187.138,"Mozilla/5.0 (X11; Linux x86_64) AppleWebKit/537.36 (KHTML, like Gecko) Chrome/90.0.4430.93 Safari/537.36",WebKit,Chrome,90.0.4430.93,Linux,
52,1,null,null,html-keyboard-response,133,21536469,0.0-133.0,IwAR27Ffc460h0P5mQ7CnBoDOTf6MY3Lv-Usgw-QwnloaNchmFLiMilXrT_w8,"
    <img id = 'img_b1' width = 18% height = 32% style = 'position:absolute;top:10%;left:25%'>
    <img id = 'img_b2' width = 18% height = 32% style = 'position:absolute;top:10%;right:25%'>
    <img id = 'img_b3' width = 18% height = 32% style = 'position:absolute;bottom:10%;left:25%'>
    <img id = 'img_b4' width = 18% height = 32% style = 'position:absolute;bottom:10%;right:25%'>
    <div id = 'band_txt'></div>
    <div id = 'cum' style = 'position:absolute;top:5%;right:5%;font-size:calc(18px + 6 * ((100vw - 320px) / 680))'></div>
  ","""","""","""","""","""","""","""","""","""","2021-05-05 14:19:58",122.171.187.138,"Mozilla/5.0 (X11; Linux x86_64) AppleWebKit/537.36 (KHTML, like Gecko) Chrome/90.0.4430.93 Safari/537.36",WebKit,Chrome,90.0.4430.93,Linux,
52,1,null,null,html-keyboard-response,134,21538222,0.0-134.0,IwAR27Ffc460h0P5mQ7CnBoDOTf6MY3Lv-Usgw-QwnloaNchmFLiMilXrT_w8,"<div style=""font-size:60px;"">+</div>","""","""","""","""","""","""","""","""","""","2021-05-05 14:19:58",122.171.187.138,"Mozilla/5.0 (X11; Linux x86_64) AppleWebKit/537.36 (KHTML, like Gecko) Chrome/90.0.4430.93 Safari/537.36",WebKit,Chrome,90.0.4430.93,Linux,
52,1,321.72999999672174,z,html-keyboard-response,135,21538554,0.0-135.0,IwAR27Ffc460h0P5mQ7CnBoDOTf6MY3Lv-Usgw-QwnloaNchmFLiMilXrT_w8,"
    <img id = 'img_b1' width = 18% height = 32% style = 'position:absolute;top:10%;left:25%'>
    <img id = 'img_b2' width = 18% height = 32% style = 'position:absolute;top:10%;right:25%'>
    <img id = 'img_b3' width = 18% height = 32% style = 'position:absolute;bottom:10%;left:25%'>
    <img id = 'img_b4' width = 18% height = 32% style = 'position:absolute;bottom:10%;right:25%'>
    <div id = 'cum' style = 'position:absolute;top:5%;right:5%;font-size:calc(18px + 6 * ((100vw - 320px) / 680))'></div>
  ","""","""","""","""","""","""","""","""","""","2021-05-05 14:19:58",122.171.187.138,"Mozilla/5.0 (X11; Linux x86_64) AppleWebKit/537.36 (KHTML, like Gecko) Chrome/90.0.4430.93 Safari/537.36",WebKit,Chrome,90.0.4430.93,Linux,
52,1,null,null,html-keyboard-response,136,21540059,0.0-136.0,IwAR27Ffc460h0P5mQ7CnBoDOTf6MY3Lv-Usgw-QwnloaNchmFLiMilXrT_w8,"
    <img id = 'img_b1' width = 18% height = 32% style = 'position:absolute;top:10%;left:25%'>
    <img id = 'img_b2' width = 18% height = 32% style = 'position:absolute;top:10%;right:25%'>
    <img id = 'img_b3' width = 18% height = 32% style = 'position:absolute;bottom:10%;left:25%'>
    <img id = 'img_b4' width = 18% height = 32% style = 'position:absolute;bottom:10%;right:25%'>
    <div id = 'band_txt'></div>
    <div id = 'cum' style = 'position:absolute;top:5%;right:5%;font-size:calc(18px + 6 * ((100vw - 320px) / 680))'></div>
  ","""","""","""","""","""","""","""","""","""","2021-05-05 14:19:58",122.171.187.138,"Mozilla/5.0 (X11; Linux x86_64) AppleWebKit/537.36 (KHTML, like Gecko) Chrome/90.0.4430.93 Safari/537.36",WebKit,Chrome,90.0.4430.93,Linux,
52,1,null,null,html-keyboard-response,137,21541061,0.0-137.0,IwAR27Ffc460h0P5mQ7CnBoDOTf6MY3Lv-Usgw-QwnloaNchmFLiMilXrT_w8,"<div style=""font-size:60px;"">+</div>","""","""","""","""","""","""","""","""","""","2021-05-05 14:19:58",122.171.187.138,"Mozilla/5.0 (X11; Linux x86_64) AppleWebKit/537.36 (KHTML, like Gecko) Chrome/90.0.4430.93 Safari/537.36",WebKit,Chrome,90.0.4430.93,Linux,
52,1,515.0999999977648,p,html-keyboard-response,138,21541579,0.0-138.0,IwAR27Ffc460h0P5mQ7CnBoDOTf6MY3Lv-Usgw-QwnloaNchmFLiMilXrT_w8,"
    <img id = 'img_b1' width = 18% height = 32% style = 'position:absolute;top:10%;left:25%'>
    <img id = 'img_b2' width = 18% height = 32% style = 'position:absolute;top:10%;right:25%'>
    <img id = 'img_b3' width = 18% height = 32% style = 'position:absolute;bottom:10%;left:25%'>
    <img id = 'img_b4' width = 18% height = 32% style = 'position:absolute;bottom:10%;right:25%'>
    <div id = 'cum' style = 'position:absolute;top:5%;right:5%;font-size:calc(18px + 6 * ((100vw - 320px) / 680))'></div>
  ","""","""","""","""","""","""","""","""","""","2021-05-05 14:19:58",122.171.187.138,"Mozilla/5.0 (X11; Linux x86_64) AppleWebKit/537.36 (KHTML, like Gecko) Chrome/90.0.4430.93 Safari/537.36",WebKit,Chrome,90.0.4430.93,Linux,
52,1,null,null,html-keyboard-response,139,21543083,0.0-139.0,IwAR27Ffc460h0P5mQ7CnBoDOTf6MY3Lv-Usgw-QwnloaNchmFLiMilXrT_w8,"
    <img id = 'img_b1' width = 18% height = 32% style = 'position:absolute;top:10%;left:25%'>
    <img id = 'img_b2' width = 18% height = 32% style = 'position:absolute;top:10%;right:25%'>
