run_id,condition,rt,response,trial_type,trial_index,time_elapsed,internal_node_id,fbclid,stimulus,trend,stable,num,resp_map,success,timeout,failed_images,failed_audio,failed_video,recorded_at,ip,user_agent,device,browser,browser_version,platform,platform_version
57,1,13867,"{""age"":""22"",""sex"":""female"",""hand"":""right""}",survey-text,0,13943,0.0-0.0,IwAR0DUIiQqMk9Y8a1lkgfzPs2Wlg4kz8TnvUH-hEjQWX7cr-jeu-ayo39hug,"""","""","""","""","""","""","""","""","""","""","2021-05-05 15:10:27",117.210.204.220,"Mozilla/5.0 (Macintosh; Intel Mac OS X 10_14_6) AppleWebKit/605.1.15 (KHTML, like Gecko) Version/14.0.3 Safari/605.1.15",Macintosh,Safari,14.0.3,"OS X",10_14_6
57,1,4812.000000000004," ",html-keyboard-response,1,18760,0.0-1.0,IwAR0DUIiQqMk9Y8a1lkgfzPs2Wlg4kz8TnvUH-hEjQWX7cr-jeu-ayo39hug,"Hi! Thanks for volunteering for this study. It is part of the project component for the course, CS786A - Computational Cognitive Science, at IIT Kanpur.<br> You will now play a decision-making game lasting for 15-20 minutes. In case of any queries, please write to prathams@iitk.ac.in or call at 9760066853.<br><br>Press any key to continue!",1,0,1,"[0,1,2,3]","""","""","""","""","""","2021-05-05 15:10:27",117.210.204.220,"Mozilla/5.0 (Macintosh; Intel Mac OS X 10_14_6) AppleWebKit/605.1.15 (KHTML, like Gecko) Version/14.0.3 Safari/605.1.15",Macintosh,Safari,14.0.3,"OS X",10_14_6
57,1,48364," ",html-keyboard-response,2,67128,0.0-2.0,IwAR0DUIiQqMk9Y8a1lkgfzPs2Wlg4kz8TnvUH-hEjQWX7cr-jeu-ayo39hug,"Imagine you are in a casino, and you go to a room with four slot machines. On pulling a machine, it yeilds a reward. At any point, some machines may be better than the others, but the amount they give varies. Your aim is to maximize your cumulative reward by the end of this experiment. <br>Machines are pulled by pressing 'Q', 'P', 'M' or 'Z' on the keyboard. These keys are arranged in the same way on the keyboard as the slot machines are on the screen.<br>Press any button to see an illustration of the trial screen and the keyboard mapping!","""","""","""","""","""","""","""","""","""","2021-05-05 15:10:27",117.210.204.220,"Mozilla/5.0 (Macintosh; Intel Mac OS X 10_14_6) AppleWebKit/605.1.15 (KHTML, like Gecko) Version/14.0.3 Safari/605.1.15",Macintosh,Safari,14.0.3,"OS X",10_14_6
57,1,"""","""",preload,3,70646,0.0-3.0,IwAR0DUIiQqMk9Y8a1lkgfzPs2Wlg4kz8TnvUH-hEjQWX7cr-jeu-ayo39hug,"""","""","""","""","""",true,false,[],[],[],"2021-05-05 15:10:27",117.210.204.220,"Mozilla/5.0 (Macintosh; Intel Mac OS X 10_14_6) AppleWebKit/605.1.15 (KHTML, like Gecko) Version/14.0.3 Safari/605.1.15",Macintosh,Safari,14.0.3,"OS X",10_14_6
57,1,181,q,html-keyboard-response,4,70830,0.0-4.0,IwAR0DUIiQqMk9Y8a1lkgfzPs2Wlg4kz8TnvUH-hEjQWX7cr-jeu-ayo39hug,"
    <img src = 'img/b1.png' width = 18% height = 32% style = 'position:absolute;top:10%;left:25%'>
    <img src = 'img/b2.png' width = 18% height = 32% style = 'position:absolute;top:10%;right:25%'>
    <img src = 'img/b3.png' width = 18% height = 32% style = 'position:absolute;bottom:10%;left:25%'>
    <img src = 'img/b4.png' width = 18% height = 32% style = 'position:absolute;bottom:10%;right:25%'>
    <div id = 'cum' style = 'position:absolute;top:5%;right:5%;font-size:calc(18px + 6 * ((100vw - 320px) / 680))'>Total</div>
    <div style = 'position:absolute;top:20%;left:30%;color:black;font-size:calc(18px + 6 * ((100vw - 320px) / 680))'>Q</div>
    <div style = 'position:absolute;top:20%;right:35%;color:black;font-size:calc(18px + 6 * ((100vw - 320px) / 680))'>P</div>
    <div style = 'position:absolute;bottom:26%;right:35%;color:black;font-size:calc(18px + 6 * ((100vw - 320px) / 680))'>M</div>
    <div style = 'position:absolute;bottom:26%;left:30%;color:black;font-size:calc(18px + 6 * ((100vw - 320px) / 680))'>Z</div>
    <div style = 'position:absolute;bottom:5%;left:30%'>Press any button to proceed to the experiment!</div>
  ","""","""","""","""","""","""","""","""","""","2021-05-05 15:10:27",117.210.204.220,"Mozilla/5.0 (Macintosh; Intel Mac OS X 10_14_6) AppleWebKit/605.1.15 (KHTML, like Gecko) Version/14.0.3 Safari/605.1.15",Macintosh,Safari,14.0.3,"OS X",10_14_6
57,1,null,null,html-keyboard-response,5,72083,0.0-5.0,IwAR0DUIiQqMk9Y8a1lkgfzPs2Wlg4kz8TnvUH-hEjQWX7cr-jeu-ayo39hug,"<div style=""font-size:60px;"">+</div>","""","""","""","""","""","""","""","""","""","2021-05-05 15:10:27",117.210.204.220,"Mozilla/5.0 (Macintosh; Intel Mac OS X 10_14_6) AppleWebKit/605.1.15 (KHTML, like Gecko) Version/14.0.3 Safari/605.1.15",Macintosh,Safari,14.0.3,"OS X",10_14_6
57,1,3763,q,html-keyboard-response,6,75848,0.0-6.0,IwAR0DUIiQqMk9Y8a1lkgfzPs2Wlg4kz8TnvUH-hEjQWX7cr-jeu-ayo39hug,"
    <img id = 'img_b1' width = 18% height = 32% style = 'position:absolute;top:10%;left:25%'>
    <img id = 'img_b2' width = 18% height = 32% style = 'position:absolute;top:10%;right:25%'>
    <img id = 'img_b3' width = 18% height = 32% style = 'position:absolute;bottom:10%;left:25%'>
    <img id = 'img_b4' width = 18% height = 32% style = 'position:absolute;bottom:10%;right:25%'>
    <div id = 'cum' style = 'position:absolute;top:5%;right:5%;font-size:calc(18px + 6 * ((100vw - 320px) / 680))'></div>
  ","""","""","""","""","""","""","""","""","""","2021-05-05 15:10:27",117.210.204.220,"Mozilla/5.0 (Macintosh; Intel Mac OS X 10_14_6) AppleWebKit/605.1.15 (KHTML, like Gecko) Version/14.0.3 Safari/605.1.15",Macintosh,Safari,14.0.3,"OS X",10_14_6
57,1,null,null,html-keyboard-response,7,77353,0.0-7.0,IwAR0DUIiQqMk9Y8a1lkgfzPs2Wlg4kz8TnvUH-hEjQWX7cr-jeu-ayo39hug,"
    <img id = 'img_b1' width = 18% height = 32% style = 'position:absolute;top:10%;left:25%'>
    <img id = 'img_b2' width = 18% height = 32% style = 'position:absolute;top:10%;right:25%'>
    <img id = 'img_b3' width = 18% height = 32% style = 'position:absolute;bottom:10%;left:25%'>
    <img id = 'img_b4' width = 18% height = 32% style = 'position:absolute;bottom:10%;right:25%'>
    <div id = 'band_txt'></div>
    <div id = 'cum' style = 'position:absolute;top:5%;right:5%;font-size:calc(18px + 6 * ((100vw - 320px) / 680))'></div>
  ","""","""","""","""","""","""","""","""","""","2021-05-05 15:10:27",117.210.204.220,"Mozilla/5.0 (Macintosh; Intel Mac OS X 10_14_6) AppleWebKit/605.1.15 (KHTML, like Gecko) Version/14.0.3 Safari/605.1.15",Macintosh,Safari,14.0.3,"OS X",10_14_6
57,1,null,null,html-keyboard-response,8,79105,0.0-8.0,IwAR0DUIiQqMk9Y8a1lkgfzPs2Wlg4kz8TnvUH-hEjQWX7cr-jeu-ayo39hug,"<div style=""font-size:60px;"">+</div>","""","""","""","""","""","""","""","""","""","2021-05-05 15:10:27",117.210.204.220,"Mozilla/5.0 (Macintosh; Intel Mac OS X 10_14_6) AppleWebKit/605.1.15 (KHTML, like Gecko) Version/14.0.3 Safari/605.1.15",Macintosh,Safari,14.0.3,"OS X",10_14_6
57,1,1178,p,html-keyboard-response,9,80285,0.0-9.0,IwAR0DUIiQqMk9Y8a1lkgfzPs2Wlg4kz8TnvUH-hEjQWX7cr-jeu-ayo39hug,"
    <img id = 'img_b1' width = 18% height = 32% style = 'position:absolute;top:10%;left:25%'>
    <img id = 'img_b2' width = 18% height = 32% style = 'position:absolute;top:10%;right:25%'>
    <img id = 'img_b3' width = 18% height = 32% style = 'position:absolute;bottom:10%;left:25%'>
    <img id = 'img_b4' width = 18% height = 32% style = 'position:absolute;bottom:10%;right:25%'>
    <div id = 'cum' style = 'position:absolute;top:5%;right:5%;font-size:calc(18px + 6 * ((100vw - 320px) / 680))'></div>
  ","""","""","""","""","""","""","""","""","""","2021-05-05 15:10:27",117.210.204.220,"Mozilla/5.0 (Macintosh; Intel Mac OS X 10_14_6) AppleWebKit/605.1.15 (KHTML, like Gecko) Version/14.0.3 Safari/605.1.15",Macintosh,Safari,14.0.3,"OS X",10_14_6
57,1,null,null,html-keyboard-response,10,81787,0.0-10.0,IwAR0DUIiQqMk9Y8a1lkgfzPs2Wlg4kz8TnvUH-hEjQWX7cr-jeu-ayo39hug,"
    <img id = 'img_b1' width = 18% height = 32% style = 'position:absolute;top:10%;left:25%'>
    <img id = 'img_b2' width = 18% height = 32% style = 'position:absolute;top:10%;right:25%'>
    <img id = 'img_b3' width = 18% height = 32% style = 'position:absolute;bottom:10%;left:25%'>
    <img id = 'img_b4' width = 18% height = 32% style = 'position:absolute;bottom:10%;right:25%'>
    <div id = 'band_txt'></div>
    <div id = 'cum' style = 'position:absolute;top:5%;right:5%;font-size:calc(18px + 6 * ((100vw - 320px) / 680))'></div>
  ","""","""","""","""","""","""","""","""","""","2021-05-05 15:10:27",117.210.204.220,"Mozilla/5.0 (Macintosh; Intel Mac OS X 10_14_6) AppleWebKit/605.1.15 (KHTML, like Gecko) Version/14.0.3 Safari/605.1.15",Macintosh,Safari,14.0.3,"OS X",10_14_6
57,1,null,null,html-keyboard-response,11,82792,0.0-11.0,IwAR0DUIiQqMk9Y8a1lkgfzPs2Wlg4kz8TnvUH-hEjQWX7cr-jeu-ayo39hug,"<div style=""font-size:60px;"">+</div>","""","""","""","""","""","""","""","""","""","2021-05-05 15:10:27",117.210.204.220,"Mozilla/5.0 (Macintosh; Intel Mac OS X 10_14_6) AppleWebKit/605.1.15 (KHTML, like Gecko) Version/14.0.3 Safari/605.1.15",Macintosh,Safari,14.0.3,"OS X",10_14_6
57,1,1168,m,html-keyboard-response,12,83960,0.0-12.0,IwAR0DUIiQqMk9Y8a1lkgfzPs2Wlg4kz8TnvUH-hEjQWX7cr-jeu-ayo39hug,"
    <img id = 'img_b1' width = 18% height = 32% style = 'position:absolute;top:10%;left:25%'>
    <img id = 'img_b2' width = 18% height = 32% style = 'position:absolute;top:10%;right:25%'>
    <img id = 'img_b3' width = 18% height = 32% style = 'position:absolute;bottom:10%;left:25%'>
    <img id = 'img_b4' width = 18% height = 32% style = 'position:absolute;bottom:10%;right:25%'>
    <div id = 'cum' style = 'position:absolute;top:5%;right:5%;font-size:calc(18px + 6 * ((100vw - 320px) / 680))'></div>
  ","""","""","""","""","""","""","""","""","""","2021-05-05 15:10:27",117.210.204.220,"Mozilla/5.0 (Macintosh; Intel Mac OS X 10_14_6) AppleWebKit/605.1.15 (KHTML, like Gecko) Version/14.0.3 Safari/605.1.15",Macintosh,Safari,14.0.3,"OS X",10_14_6
57,1,null,null,html-keyboard-response,13,85463,0.0-13.0,IwAR0DUIiQqMk9Y8a1lkgfzPs2Wlg4kz8TnvUH-hEjQWX7cr-jeu-ayo39hug,"
    <img id = 'img_b1' width = 18% height = 32% style = 'position:absolute;top:10%;left:25%'>
    <img id = 'img_b2' width = 18% height = 32% style = 'position:absolute;top:10%;right:25%'>
    <img id = 'img_b3' width = 18% height = 32% style = 'position:absolute;bottom:10%;left:25%'>
    <img id = 'img_b4' width = 18% height = 32% style = 'position:absolute;bottom:10%;right:25%'>
    <div id = 'band_txt'></div>
    <div id = 'cum' style = 'position:absolute;top:5%;right:5%;font-size:calc(18px + 6 * ((100vw - 320px) / 680))'></div>
  ","""","""","""","""","""","""","""","""","""","2021-05-05 15:10:27",117.210.204.220,"Mozilla/5.0 (Macintosh; Intel Mac OS X 10_14_6) AppleWebKit/605.1.15 (KHTML, like Gecko) Version/14.0.3 Safari/605.1.15",Macintosh,Safari,14.0.3,"OS X",10_14_6
57,1,null,null,html-keyboard-response,14,87214,0.0-14.0,IwAR0DUIiQqMk9Y8a1lkgfzPs2Wlg4kz8TnvUH-hEjQWX7cr-jeu-ayo39hug,"<div style=""font-size:60px;"">+</div>","""","""","""","""","""","""","""","""","""","2021-05-05 15:10:27",117.210.204.220,"Mozilla/5.0 (Macintosh; Intel Mac OS X 10_14_6) AppleWebKit/605.1.15 (KHTML, like Gecko) Version/14.0.3 Safari/605.1.15",Macintosh,Safari,14.0.3,"OS X",10_14_6
57,1,748,z,html-keyboard-response,15,87964,0.0-15.0,IwAR0DUIiQqMk9Y8a1lkgfzPs2Wlg4kz8TnvUH-hEjQWX7cr-jeu-ayo39hug,"
    <img id = 'img_b1' width = 18% height = 32% style = 'position:absolute;top:10%;left:25%'>
    <img id = 'img_b2' width = 18% height = 32% style = 'position:absolute;top:10%;right:25%'>
    <img id = 'img_b3' width = 18% height = 32% style = 'position:absolute;bottom:10%;left:25%'>
    <img id = 'img_b4' width = 18% height = 32% style = 'position:absolute;bottom:10%;right:25%'>
    <div id = 'cum' style = 'position:absolute;top:5%;right:5%;font-size:calc(18px + 6 * ((100vw - 320px) / 680))'></div>
  ","""","""","""","""","""","""","""","""","""","2021-05-05 15:10:27",117.210.204.220,"Mozilla/5.0 (Macintosh; Intel Mac OS X 10_14_6) AppleWebKit/605.1.15 (KHTML, like Gecko) Version/14.0.3 Safari/605.1.15",Macintosh,Safari,14.0.3,"OS X",10_14_6
57,1,null,null,html-keyboard-response,16,89468,0.0-16.0,IwAR0DUIiQqMk9Y8a1lkgfzPs2Wlg4kz8TnvUH-hEjQWX7cr-jeu-ayo39hug,"
    <img id = 'img_b1' width = 18% height = 32% style = 'position:absolute;top:10%;left:25%'>
    <img id = 'img_b2' width = 18% height = 32% style = 'position:absolute;top:10%;right:25%'>
    <img id = 'img_b3' width = 18% height = 32% style = 'position:absolute;bottom:10%;left:25%'>
    <img id = 'img_b4' width = 18% height = 32% style = 'position:absolute;bottom:10%;right:25%'>
    <div id = 'band_txt'></div>
    <div id = 'cum' style = 'position:absolute;top:5%;right:5%;font-size:calc(18px + 6 * ((100vw - 320px) / 680))'></div>
  ","""","""","""","""","""","""","""","""","""","2021-05-05 15:10:27",117.210.204.220,"Mozilla/5.0 (Macintosh; Intel Mac OS X 10_14_6) AppleWebKit/605.1.15 (KHTML, like Gecko) Version/14.0.3 Safari/605.1.15",Macintosh,Safari,14.0.3,"OS X",10_14_6
57,1,null,null,html-keyboard-response,17,90721,0.0-17.0,IwAR0DUIiQqMk9Y8a1lkgfzPs2Wlg4kz8TnvUH-hEjQWX7cr-jeu-ayo39hug,"<div style=""font-size:60px;"">+</div>","""","""","""","""","""","""","""","""","""","2021-05-05 15:10:27",117.210.204.220,"Mozilla/5.0 (Macintosh; Intel Mac OS X 10_14_6) AppleWebKit/605.1.15 (KHTML, like Gecko) Version/14.0.3 Safari/605.1.15",Macintosh,Safari,14.0.3,"OS X",10_14_6
57,1,673.0000000000146,q,html-keyboard-response,18,91395,0.0-18.0,IwAR0DUIiQqMk9Y8a1lkgfzPs2Wlg4kz8TnvUH-hEjQWX7cr-jeu-ayo39hug,"
    <img id = 'img_b1' width = 18% height = 32% style = 'position:absolute;top:10%;left:25%'>
    <img id = 'img_b2' width = 18% height = 32% style = 'position:absolute;top:10%;right:25%'>
    <img id = 'img_b3' width = 18% height = 32% style = 'position:absolute;bottom:10%;left:25%'>
    <img id = 'img_b4' width = 18% height = 32% style = 'position:absolute;bottom:10%;right:25%'>
    <div id = 'cum' style = 'position:absolute;top:5%;right:5%;font-size:calc(18px + 6 * ((100vw - 320px) / 680))'></div>
  ","""","""","""","""","""","""","""","""","""","2021-05-05 15:10:27",117.210.204.220,"Mozilla/5.0 (Macintosh; Intel Mac OS X 10_14_6) AppleWebKit/605.1.15 (KHTML, like Gecko) Version/14.0.3 Safari/605.1.15",Macintosh,Safari,14.0.3,"OS X",10_14_6
57,1,null,null,html-keyboard-response,19,92898,0.0-19.0,IwAR0DUIiQqMk9Y8a1lkgfzPs2Wlg4kz8TnvUH-hEjQWX7cr-jeu-ayo39hug,"
    <img id = 'img_b1' width = 18% height = 32% style = 'position:absolute;top:10%;left:25%'>
    <img id = 'img_b2' width = 18% height = 32% style = 'position:absolute;top:10%;right:25%'>
    <img id = 'img_b3' width = 18% height = 32% style = 'position:absolute;bottom:10%;left:25%'>
    <img id = 'img_b4' width = 18% height = 32% style = 'position:absolute;bottom:10%;right:25%'>
    <div id = 'band_txt'></div>
    <div id = 'cum' style = 'position:absolute;top:5%;right:5%;font-size:calc(18px + 6 * ((100vw - 320px) / 680))'></div>
  ","""","""","""","""","""","""","""","""","""","2021-05-05 15:10:27",117.210.204.220,"Mozilla/5.0 (Macintosh; Intel Mac OS X 10_14_6) AppleWebKit/605.1.15 (KHTML, like Gecko) Version/14.0.3 Safari/605.1.15",Macintosh,Safari,14.0.3,"OS X",10_14_6
57,1,null,null,html-keyboard-response,20,93650,0.0-20.0,IwAR0DUIiQqMk9Y8a1lkgfzPs2Wlg4kz8TnvUH-hEjQWX7cr-jeu-ayo39hug,"<div style=""font-size:60px;"">+</div>","""","""","""","""","""","""","""","""","""","2021-05-05 15:10:27",117.210.204.220,"Mozilla/5.0 (Macintosh; Intel Mac OS X 10_14_6) AppleWebKit/605.1.15 (KHTML, like Gecko) Version/14.0.3 Safari/605.1.15",Macintosh,Safari,14.0.3,"OS X",10_14_6
57,1,912,z,html-keyboard-response,21,94565,0.0-21.0,IwAR0DUIiQqMk9Y8a1lkgfzPs2Wlg4kz8TnvUH-hEjQWX7cr-jeu-ayo39hug,"
    <img id = 'img_b1' width = 18% height = 32% style = 'position:absolute;top:10%;left:25%'>
    <img id = 'img_b2' width = 18% height = 32% style = 'position:absolute;top:10%;right:25%'>
    <img id = 'img_b3' width = 18% height = 32% style = 'position:absolute;bottom:10%;left:25%'>
    <img id = 'img_b4' width = 18% height = 32% style = 'position:absolute;bottom:10%;right:25%'>
    <div id = 'cum' style = 'position:absolute;top:5%;right:5%;font-size:calc(18px + 6 * ((100vw - 320px) / 680))'></div>
  ","""","""","""","""","""","""","""","""","""","2021-05-05 15:10:27",117.210.204.220,"Mozilla/5.0 (Macintosh; Intel Mac OS X 10_14_6) AppleWebKit/605.1.15 (KHTML, like Gecko) Version/14.0.3 Safari/605.1.15",Macintosh,Safari,14.0.3,"OS X",10_14_6
57,1,null,null,html-keyboard-response,22,96068,0.0-22.0,IwAR0DUIiQqMk9Y8a1lkgfzPs2Wlg4kz8TnvUH-hEjQWX7cr-jeu-ayo39hug,"
    <img id = 'img_b1' width = 18% height = 32% style = 'position:absolute;top:10%;left:25%'>
    <img id = 'img_b2' width = 18% height = 32% style = 'position:absolute;top:10%;right:25%'>
    <img id = 'img_b3' width = 18% height = 32% style = 'position:absolute;bottom:10%;left:25%'>
    <img id = 'img_b4' width = 18% height = 32% style = 'position:absolute;bottom:10%;right:25%'>
    <div id = 'band_txt'></div>
    <div id = 'cum' style = 'position:absolute;top:5%;right:5%;font-size:calc(18px + 6 * ((100vw - 320px) / 680))'></div>
  ","""","""","""","""","""","""","""","""","""","2021-05-05 15:10:27",117.210.204.220,"Mozilla/5.0 (Macintosh; Intel Mac OS X 10_14_6) AppleWebKit/605.1.15 (KHTML, like Gecko) Version/14.0.3 Safari/605.1.15",Macintosh,Safari,14.0.3,"OS X",10_14_6
57,1,null,null,html-keyboard-response,23,97820,0.0-23.0,IwAR0DUIiQqMk9Y8a1lkgfzPs2Wlg4kz8TnvUH-hEjQWX7cr-jeu-ayo39hug,"<div style=""font-size:60px;"">+</div>","""","""","""","""","""","""","""","""","""","2021-05-05 15:10:27",117.210.204.220,"Mozilla/5.0 (Macintosh; Intel Mac OS X 10_14_6) AppleWebKit/605.1.15 (KHTML, like Gecko) Version/14.0.3 Safari/605.1.15",Macintosh,Safari,14.0.3,"OS X",10_14_6
57,1,716,q,html-keyboard-response,24,98538,0.0-24.0,IwAR0DUIiQqMk9Y8a1lkgfzPs2Wlg4kz8TnvUH-hEjQWX7cr-jeu-ayo39hug,"
    <img id = 'img_b1' width = 18% height = 32% style = 'position:absolute;top:10%;left:25%'>
    <img id = 'img_b2' width = 18% height = 32% style = 'position:absolute;top:10%;right:25%'>
    <img id = 'img_b3' width = 18% height = 32% style = 'position:absolute;bottom:10%;left:25%'>
    <img id = 'img_b4' width = 18% height = 32% style = 'position:absolute;bottom:10%;right:25%'>
    <div id = 'cum' style = 'position:absolute;top:5%;right:5%;font-size:calc(18px + 6 * ((100vw - 320px) / 680))'></div>
  ","""","""","""","""","""","""","""","""","""","2021-05-05 15:10:27",117.210.204.220,"Mozilla/5.0 (Macintosh; Intel Mac OS X 10_14_6) AppleWebKit/605.1.15 (KHTML, like Gecko) Version/14.0.3 Safari/605.1.15",Macintosh,Safari,14.0.3,"OS X",10_14_6
57,1,null,null,html-keyboard-response,25,100040,0.0-25.0,IwAR0DUIiQqMk9Y8a1lkgfzPs2Wlg4kz8TnvUH-hEjQWX7cr-jeu-ayo39hug,"
    <img id = 'img_b1' width = 18% height = 32% style = 'position:absolute;top:10%;left:25%'>
    <img id = 'img_b2' width = 18% height = 32% style = 'position:absolute;top:10%;right:25%'>
    <img id = 'img_b3' width = 18% height = 32% style = 'position:absolute;bottom:10%;left:25%'>
    <img id = 'img_b4' width = 18% height = 32% style = 'position:absolute;bottom:10%;right:25%'>
    <div id = 'band_txt'></div>
    <div id = 'cum' style = 'position:absolute;top:5%;right:5%;font-size:calc(18px + 6 * ((100vw - 320px) / 680))'></div>
  ","""","""","""","""","""","""","""","""","""","2021-05-05 15:10:27",117.210.204.220,"Mozilla/5.0 (Macintosh; Intel Mac OS X 10_14_6) AppleWebKit/605.1.15 (KHTML, like Gecko) Version/14.0.3 Safari/605.1.15",Macintosh,Safari,14.0.3,"OS X",10_14_6
57,1,null,null,html-keyboard-response,26,100795,0.0-26.0,IwAR0DUIiQqMk9Y8a1lkgfzPs2Wlg4kz8TnvUH-hEjQWX7cr-jeu-ayo39hug,"<div style=""font-size:60px;"">+</div>","""","""","""","""","""","""","""","""","""","2021-05-05 15:10:27",117.210.204.220,"Mozilla/5.0 (Macintosh; Intel Mac OS X 10_14_6) AppleWebKit/605.1.15 (KHTML, like Gecko) Version/14.0.3 Safari/605.1.15",Macintosh,Safari,14.0.3,"OS X",10_14_6
57,1,1222,z,html-keyboard-response,27,102018,0.0-27.0,IwAR0DUIiQqMk9Y8a1lkgfzPs2Wlg4kz8TnvUH-hEjQWX7cr-jeu-ayo39hug,"
    <img id = 'img_b1' width = 18% height = 32% style = 'position:absolute;top:10%;left:25%'>
    <img id = 'img_b2' width = 18% height = 32% style = 'position:absolute;top:10%;right:25%'>
    <img id = 'img_b3' width = 18% height = 32% style = 'position:absolute;bottom:10%;left:25%'>
    <img id = 'img_b4' width = 18% height = 32% style = 'position:absolute;bottom:10%;right:25%'>
    <div id = 'cum' style = 'position:absolute;top:5%;right:5%;font-size:calc(18px + 6 * ((100vw - 320px) / 680))'></div>
  ","""","""","""","""","""","""","""","""","""","2021-05-05 15:10:27",117.210.204.220,"Mozilla/5.0 (Macintosh; Intel Mac OS X 10_14_6) AppleWebKit/605.1.15 (KHTML, like Gecko) Version/14.0.3 Safari/605.1.15",Macintosh,Safari,14.0.3,"OS X",10_14_6
57,1,null,null,html-keyboard-response,28,103521,0.0-28.0,IwAR0DUIiQqMk9Y8a1lkgfzPs2Wlg4kz8TnvUH-hEjQWX7cr-jeu-ayo39hug,"
    <img id = 'img_b1' width = 18% height = 32% style = 'position:absolute;top:10%;left:25%'>
    <img id = 'img_b2' width = 18% height = 32% style = 'position:absolute;top:10%;right:25%'>
    <img id = 'img_b3' width = 18% height = 32% style = 'position:absolute;bottom:10%;left:25%'>
    <img id = 'img_b4' width = 18% height = 32% style = 'position:absolute;bottom:10%;right:25%'>
    <div id = 'band_txt'></div>
    <div id = 'cum' style = 'position:absolute;top:5%;right:5%;font-size:calc(18px + 6 * ((100vw - 320px) / 680))'></div>
  ","""","""","""","""","""","""","""","""","""","2021-05-05 15:10:27",117.210.204.220,"Mozilla/5.0 (Macintosh; Intel Mac OS X 10_14_6) AppleWebKit/605.1.15 (KHTML, like Gecko) Version/14.0.3 Safari/605.1.15",Macintosh,Safari,14.0.3,"OS X",10_14_6
57,1,null,null,html-keyboard-response,29,105273,0.0-29.0,IwAR0DUIiQqMk9Y8a1lkgfzPs2Wlg4kz8TnvUH-hEjQWX7cr-jeu-ayo39hug,"<div style=""font-size:60px;"">+</div>","""","""","""","""","""","""","""","""","""","2021-05-05 15:10:27",117.210.204.220,"Mozilla/5.0 (Macintosh; Intel Mac OS X 10_14_6) AppleWebKit/605.1.15 (KHTML, like Gecko) Version/14.0.3 Safari/605.1.15",Macintosh,Safari,14.0.3,"OS X",10_14_6
57,1,695,z,html-keyboard-response,30,105969,0.0-30.0,IwAR0DUIiQqMk9Y8a1lkgfzPs2Wlg4kz8TnvUH-hEjQWX7cr-jeu-ayo39hug,"
    <img id = 'img_b1' width = 18% height = 32% style = 'position:absolute;top:10%;left:25%'>
    <img id = 'img_b2' width = 18% height = 32% style = 'position:absolute;top:10%;right:25%'>
    <img id = 'img_b3' width = 18% height = 32% style = 'position:absolute;bottom:10%;left:25%'>
    <img id = 'img_b4' width = 18% height = 32% style = 'position:absolute;bottom:10%;right:25%'>
    <div id = 'cum' style = 'position:absolute;top:5%;right:5%;font-size:calc(18px + 6 * ((100vw - 320px) / 680))'></div>
  ","""","""","""","""","""","""","""","""","""","2021-05-05 15:10:27",117.210.204.220,"Mozilla/5.0 (Macintosh; Intel Mac OS X 10_14_6) AppleWebKit/605.1.15 (KHTML, like Gecko) Version/14.0.3 Safari/605.1.15",Macintosh,Safari,14.0.3,"OS X",10_14_6
57,1,null,null,html-keyboard-response,31,107472,0.0-31.0,IwAR0DUIiQqMk9Y8a1lkgfzPs2Wlg4kz8TnvUH-hEjQWX7cr-jeu-ayo39hug,"
    <img id = 'img_b1' width = 18% height = 32% style = 'position:absolute;top:10%;left:25%'>
    <img id = 'img_b2' width = 18% height = 32% style = 'position:absolute;top:10%;right:25%'>
    <img id = 'img_b3' width = 18% height = 32% style = 'position:absolute;bottom:10%;left:25%'>
    <img id = 'img_b4' width = 18% height = 32% style = 'position:absolute;bottom:10%;right:25%'>
    <div id = 'band_txt'></div>
    <div id = 'cum' style = 'position:absolute;top:5%;right:5%;font-size:calc(18px + 6 * ((100vw - 320px) / 680))'></div>
  ","""","""","""","""","""","""","""","""","""","2021-05-05 15:10:27",117.210.204.220,"Mozilla/5.0 (Macintosh; Intel Mac OS X 10_14_6) AppleWebKit/605.1.15 (KHTML, like Gecko) Version/14.0.3 Safari/605.1.15",Macintosh,Safari,14.0.3,"OS X",10_14_6
57,1,null,null,html-keyboard-response,32,108227,0.0-32.0,IwAR0DUIiQqMk9Y8a1lkgfzPs2Wlg4kz8TnvUH-hEjQWX7cr-jeu-ayo39hug,"<div style=""font-size:60px;"">+</div>","""","""","""","""","""","""","""","""","""","2021-05-05 15:10:27",117.210.204.220,"Mozilla/5.0 (Macintosh; Intel Mac OS X 10_14_6) AppleWebKit/605.1.15 (KHTML, like Gecko) Version/14.0.3 Safari/605.1.15",Macintosh,Safari,14.0.3,"OS X",10_14_6
57,1,998,z,html-keyboard-response,33,109225,0.0-33.0,IwAR0DUIiQqMk9Y8a1lkgfzPs2Wlg4kz8TnvUH-hEjQWX7cr-jeu-ayo39hug,"
    <img id = 'img_b1' width = 18% height = 32% style = 'position:absolute;top:10%;left:25%'>
    <img id = 'img_b2' width = 18% height = 32% style = 'position:absolute;top:10%;right:25%'>
    <img id = 'img_b3' width = 18% height = 32% style = 'position:absolute;bottom:10%;left:25%'>
    <img id = 'img_b4' width = 18% height = 32% style = 'position:absolute;bottom:10%;right:25%'>
    <div id = 'cum' style = 'position:absolute;top:5%;right:5%;font-size:calc(18px + 6 * ((100vw - 320px) / 680))'></div>
  ","""","""","""","""","""","""","""","""","""","2021-05-05 15:10:27",117.210.204.220,"Mozilla/5.0 (Macintosh; Intel Mac OS X 10_14_6) AppleWebKit/605.1.15 (KHTML, like Gecko) Version/14.0.3 Safari/605.1.15",Macintosh,Safari,14.0.3,"OS X",10_14_6
57,1,null,null,html-keyboard-response,34,110728,0.0-34.0,IwAR0DUIiQqMk9Y8a1lkgfzPs2Wlg4kz8TnvUH-hEjQWX7cr-jeu-ayo39hug,"
    <img id = 'img_b1' width = 18% height = 32% style = 'position:absolute;top:10%;left:25%'>
    <img id = 'img_b2' width = 18% height = 32% style = 'position:absolute;top:10%;right:25%'>
    <img id = 'img_b3' width = 18% height = 32% style = 'position:absolute;bottom:10%;left:25%'>
    <img id = 'img_b4' width = 18% height = 32% style = 'position:absolute;bottom:10%;right:25%'>
    <div id = 'band_txt'></div>
    <div id = 'cum' style = 'position:absolute;top:5%;right:5%;font-size:calc(18px + 6 * ((100vw - 320px) / 680))'></div>
  ","""","""","""","""","""","""","""","""","""","2021-05-05 15:10:27",117.210.204.220,"Mozilla/5.0 (Macintosh; Intel Mac OS X 10_14_6) AppleWebKit/605.1.15 (KHTML, like Gecko) Version/14.0.3 Safari/605.1.15",Macintosh,Safari,14.0.3,"OS X",10_14_6
57,1,null,null,html-keyboard-response,35,112479,0.0-35.0,IwAR0DUIiQqMk9Y8a1lkgfzPs2Wlg4kz8TnvUH-hEjQWX7cr-jeu-ayo39hug,"<div style=""font-size:60px;"">+</div>","""","""","""","""","""","""","""","""","""","2021-05-05 15:10:27",117.210.204.220,"Mozilla/5.0 (Macintosh; Intel Mac OS X 10_14_6) AppleWebKit/605.1.15 (KHTML, like Gecko) Version/14.0.3 Safari/605.1.15",Macintosh,Safari,14.0.3,"OS X",10_14_6
57,1,857,z,html-keyboard-response,36,113336,0.0-36.0,IwAR0DUIiQqMk9Y8a1lkgfzPs2Wlg4kz8TnvUH-hEjQWX7cr-jeu-ayo39hug,"
    <img id = 'img_b1' width = 18% height = 32% style = 'position:absolute;top:10%;left:25%'>
    <img id = 'img_b2' width = 18% height = 32% style = 'position:absolute;top:10%;right:25%'>
    <img id = 'img_b3' width = 18% height = 32% style = 'position:absolute;bottom:10%;left:25%'>
    <img id = 'img_b4' width = 18% height = 32% style = 'position:absolute;bottom:10%;right:25%'>
    <div id = 'cum' style = 'position:absolute;top:5%;right:5%;font-size:calc(18px + 6 * ((100vw - 320px) / 680))'></div>
  ","""","""","""","""","""","""","""","""","""","2021-05-05 15:10:27",117.210.204.220,"Mozilla/5.0 (Macintosh; Intel Mac OS X 10_14_6) AppleWebKit/605.1.15 (KHTML, like Gecko) Version/14.0.3 Safari/605.1.15",Macintosh,Safari,14.0.3,"OS X",10_14_6
57,1,null,null,html-keyboard-response,37,114841,0.0-37.0,IwAR0DUIiQqMk9Y8a1lkgfzPs2Wlg4kz8TnvUH-hEjQWX7cr-jeu-ayo39hug,"
    <img id = 'img_b1' width = 18% height = 32% style = 'position:absolute;top:10%;left:25%'>
    <img id = 'img_b2' width = 18% height = 32% style = 'position:absolute;top:10%;right:25%'>
    <img id = 'img_b3' width = 18% height = 32% style = 'position:absolute;bottom:10%;left:25%'>
    <img id = 'img_b4' width = 18% height = 32% style = 'position:absolute;bottom:10%;right:25%'>
    <div id = 'band_txt'></div>
    <div id = 'cum' style = 'position:absolute;top:5%;right:5%;font-size:calc(18px + 6 * ((100vw - 320px) / 680))'></div>
  ","""","""","""","""","""","""","""","""","""","2021-05-05 15:10:27",117.210.204.220,"Mozilla/5.0 (Macintosh; Intel Mac OS X 10_14_6) AppleWebKit/605.1.15 (KHTML, like Gecko) Version/14.0.3 Safari/605.1.15",Macintosh,Safari,14.0.3,"OS X",10_14_6
57,1,null,null,html-keyboard-response,38,116594,0.0-38.0,IwAR0DUIiQqMk9Y8a1lkgfzPs2Wlg4kz8TnvUH-hEjQWX7cr-jeu-ayo39hug,"<div style=""font-size:60px;"">+</div>","""","""","""","""","""","""","""","""","""","2021-05-05 15:10:27",117.210.204.220,"Mozilla/5.0 (Macintosh; Intel Mac OS X 10_14_6) AppleWebKit/605.1.15 (KHTML, like Gecko) Version/14.0.3 Safari/605.1.15",Macintosh,Safari,14.0.3,"OS X",10_14_6
57,1,640,z,html-keyboard-response,39,117235,0.0-39.0,IwAR0DUIiQqMk9Y8a1lkgfzPs2Wlg4kz8TnvUH-hEjQWX7cr-jeu-ayo39hug,"
    <img id = 'img_b1' width = 18% height = 32% style = 'position:absolute;top:10%;left:25%'>
    <img id = 'img_b2' width = 18% height = 32% style = 'position:absolute;top:10%;right:25%'>
    <img id = 'img_b3' width = 18% height = 32% style = 'position:absolute;bottom:10%;left:25%'>
    <img id = 'img_b4' width = 18% height = 32% style = 'position:absolute;bottom:10%;right:25%'>
    <div id = 'cum' style = 'position:absolute;top:5%;right:5%;font-size:calc(18px + 6 * ((100vw - 320px) / 680))'></div>
  ","""","""","""","""","""","""","""","""","""","2021-05-05 15:10:27",117.210.204.220,"Mozilla/5.0 (Macintosh; Intel Mac OS X 10_14_6) AppleWebKit/605.1.15 (KHTML, like Gecko) Version/14.0.3 Safari/605.1.15",Macintosh,Safari,14.0.3,"OS X",10_14_6
57,1,null,null,html-keyboard-response,40,118738,0.0-40.0,IwAR0DUIiQqMk9Y8a1lkgfzPs2Wlg4kz8TnvUH-hEjQWX7cr-jeu-ayo39hug,"
    <img id = 'img_b1' width = 18% height = 32% style = 'position:absolute;top:10%;left:25%'>
    <img id = 'img_b2' width = 18% height = 32% style = 'position:absolute;top:10%;right:25%'>
    <img id = 'img_b3' width = 18% height = 32% style = 'position:absolute;bottom:10%;left:25%'>
    <img id = 'img_b4' width = 18% height = 32% style = 'position:absolute;bottom:10%;right:25%'>
    <div id = 'band_txt'></div>
    <div id = 'cum' style = 'position:absolute;top:5%;right:5%;font-size:calc(18px + 6 * ((100vw - 320px) / 680))'></div>
  ","""","""","""","""","""","""","""","""","""","2021-05-05 15:10:27",117.210.204.220,"Mozilla/5.0 (Macintosh; Intel Mac OS X 10_14_6) AppleWebKit/605.1.15 (KHTML, like Gecko) Version/14.0.3 Safari/605.1.15",Macintosh,Safari,14.0.3,"OS X",10_14_6
57,1,null,null,html-keyboard-response,41,119490,0.0-41.0,IwAR0DUIiQqMk9Y8a1lkgfzPs2Wlg4kz8TnvUH-hEjQWX7cr-jeu-ayo39hug,"<div style=""font-size:60px;"">+</div>","""","""","""","""","""","""","""","""","""","2021-05-05 15:10:27",117.210.204.220,"Mozilla/5.0 (Macintosh; Intel Mac OS X 10_14_6) AppleWebKit/605.1.15 (KHTML, like Gecko) Version/14.0.3 Safari/605.1.15",Macintosh,Safari,14.0.3,"OS X",10_14_6
57,1,624.0000000000146,z,html-keyboard-response,42,120115,0.0-42.0,IwAR0DUIiQqMk9Y8a1lkgfzPs2Wlg4kz8TnvUH-hEjQWX7cr-jeu-ayo39hug,"
    <img id = 'img_b1' width = 18% height = 32% style = 'position:absolute;top:10%;left:25%'>
    <img id = 'img_b2' width = 18% height = 32% style = 'position:absolute;top:10%;right:25%'>
    <img id = 'img_b3' width = 18% height = 32% style = 'position:absolute;bottom:10%;left:25%'>
    <img id = 'img_b4' width = 18% height = 32% style = 'position:absolute;bottom:10%;right:25%'>
    <div id = 'cum' style = 'position:absolute;top:5%;right:5%;font-size:calc(18px + 6 * ((100vw - 320px) / 680))'></div>
  ","""","""","""","""","""","""","""","""","""","2021-05-05 15:10:27",117.210.204.220,"Mozilla/5.0 (Macintosh; Intel Mac OS X 10_14_6) AppleWebKit/605.1.15 (KHTML, like Gecko) Version/14.0.3 Safari/605.1.15",Macintosh,Safari,14.0.3,"OS X",10_14_6
57,1,null,null,html-keyboard-response,43,121620,0.0-43.0,IwAR0DUIiQqMk9Y8a1lkgfzPs2Wlg4kz8TnvUH-hEjQWX7cr-jeu-ayo39hug,"
    <img id = 'img_b1' width = 18% height = 32% style = 'position:absolute;top:10%;left:25%'>
    <img id = 'img_b2' width = 18% height = 32% style = 'position:absolute;top:10%;right:25%'>
    <img id = 'img_b3' width = 18% height = 32% style = 'position:absolute;bottom:10%;left:25%'>
    <img id = 'img_b4' width = 18% height = 32% style = 'position:absolute;bottom:10%;right:25%'>
    <div id = 'band_txt'></div>
    <div id = 'cum' style = 'position:absolute;top:5%;right:5%;font-size:calc(18px + 6 * ((100vw - 320px) / 680))'></div>
  ","""","""","""","""","""","""","""","""","""","2021-05-05 15:10:27",117.210.204.220,"Mozilla/5.0 (Macintosh; Intel Mac OS X 10_14_6) AppleWebKit/605.1.15 (KHTML, like Gecko) Version/14.0.3 Safari/605.1.15",Macintosh,Safari,14.0.3,"OS X",10_14_6
57,1,null,null,html-keyboard-response,44,122622,0.0-44.0,IwAR0DUIiQqMk9Y8a1lkgfzPs2Wlg4kz8TnvUH-hEjQWX7cr-jeu-ayo39hug,"<div style=""font-size:60px;"">+</div>","""","""","""","""","""","""","""","""","""","2021-05-05 15:10:27",117.210.204.220,"Mozilla/5.0 (Macintosh; Intel Mac OS X 10_14_6) AppleWebKit/605.1.15 (KHTML, like Gecko) Version/14.0.3 Safari/605.1.15",Macintosh,Safari,14.0.3,"OS X",10_14_6
57,1,656,q,html-keyboard-response,45,123280,0.0-45.0,IwAR0DUIiQqMk9Y8a1lkgfzPs2Wlg4kz8TnvUH-hEjQWX7cr-jeu-ayo39hug,"
    <img id = 'img_b1' width = 18% height = 32% style = 'position:absolute;top:10%;left:25%'>
    <img id = 'img_b2' width = 18% height = 32% style = 'position:absolute;top:10%;right:25%'>
    <img id = 'img_b3' width = 18% height = 32% style = 'position:absolute;bottom:10%;left:25%'>
    <img id = 'img_b4' width = 18% height = 32% style = 'position:absolute;bottom:10%;right:25%'>
    <div id = 'cum' style = 'position:absolute;top:5%;right:5%;font-size:calc(18px + 6 * ((100vw - 320px) / 680))'></div>
  ","""","""","""","""","""","""","""","""","""","2021-05-05 15:10:27",117.210.204.220,"Mozilla/5.0 (Macintosh; Intel Mac OS X 10_14_6) AppleWebKit/605.1.15 (KHTML, like Gecko) Version/14.0.3 Safari/605.1.15",Macintosh,Safari,14.0.3,"OS X",10_14_6
57,1,null,null,html-keyboard-response,46,124782,0.0-46.0,IwAR0DUIiQqMk9Y8a1lkgfzPs2Wlg4kz8TnvUH-hEjQWX7cr-jeu-ayo39hug,"
    <img id = 'img_b1' width = 18% height = 32% style = 'position:absolute;top:10%;left:25%'>
    <img id = 'img_b2' width = 18% height = 32% style = 'position:absolute;top:10%;right:25%'>
    <img id = 'img_b3' width = 18% height = 32% style = 'position:absolute;bottom:10%;left:25%'>
    <img id = 'img_b4' width = 18% height = 32% style = 'position:absolute;bottom:10%;right:25%'>
    <div id = 'band_txt'></div>
    <div id = 'cum' style = 'position:absolute;top:5%;right:5%;font-size:calc(18px + 6 * ((100vw - 320px) / 680))'></div>
  ","""","""","""","""","""","""","""","""","""","2021-05-05 15:10:27",117.210.204.220,"Mozilla/5.0 (Macintosh; Intel Mac OS X 10_14_6) AppleWebKit/605.1.15 (KHTML, like Gecko) Version/14.0.3 Safari/605.1.15",Macintosh,Safari,14.0.3,"OS X",10_14_6
57,1,null,null,html-keyboard-response,47,126284,0.0-47.0,IwAR0DUIiQqMk9Y8a1lkgfzPs2Wlg4kz8TnvUH-hEjQWX7cr-jeu-ayo39hug,"<div style=""font-size:60px;"">+</div>","""","""","""","""","""","""","""","""","""","2021-05-05 15:10:27",117.210.204.220,"Mozilla/5.0 (Macintosh; Intel Mac OS X 10_14_6) AppleWebKit/605.1.15 (KHTML, like Gecko) Version/14.0.3 Safari/605.1.15",Macintosh,Safari,14.0.3,"OS X",10_14_6
57,1,1850,z,html-keyboard-response,48,128138,0.0-48.0,IwAR0DUIiQqMk9Y8a1lkgfzPs2Wlg4kz8TnvUH-hEjQWX7cr-jeu-ayo39hug,"
    <img id = 'img_b1' width = 18% height = 32% style = 'position:absolute;top:10%;left:25%'>
    <img id = 'img_b2' width = 18% height = 32% style = 'position:absolute;top:10%;right:25%'>
    <img id = 'img_b3' width = 18% height = 32% style = 'position:absolute;bottom:10%;left:25%'>
    <img id = 'img_b4' width = 18% height = 32% style = 'position:absolute;bottom:10%;right:25%'>
    <div id = 'cum' style = 'position:absolute;top:5%;right:5%;font-size:calc(18px + 6 * ((100vw - 320px) / 680))'></div>
  ","""","""","""","""","""","""","""","""","""","2021-05-05 15:10:27",117.210.204.220,"Mozilla/5.0 (Macintosh; Intel Mac OS X 10_14_6) AppleWebKit/605.1.15 (KHTML, like Gecko) Version/14.0.3 Safari/605.1.15",Macintosh,Safari,14.0.3,"OS X",10_14_6
57,1,null,null,html-keyboard-response,49,129641,0.0-49.0,IwAR0DUIiQqMk9Y8a1lkgfzPs2Wlg4kz8TnvUH-hEjQWX7cr-jeu-ayo39hug,"
    <img id = 'img_b1' width = 18% height = 32% style = 'position:absolute;top:10%;left:25%'>
    <img id = 'img_b2' width = 18% height = 32% style = 'position:absolute;top:10%;right:25%'>
    <img id = 'img_b3' width = 18% height = 32% style = 'position:absolute;bottom:10%;left:25%'>
    <img id = 'img_b4' width = 18% height = 32% style = 'position:absolute;bottom:10%;right:25%'>
    <div id = 'band_txt'></div>
    <div id = 'cum' style = 'position:absolute;top:5%;right:5%;font-size:calc(18px + 6 * ((100vw - 320px) / 680))'></div>
  ","""","""","""","""","""","""","""","""","""","2021-05-05 15:10:27",117.210.204.220,"Mozilla/5.0 (Macintosh; Intel Mac OS X 10_14_6) AppleWebKit/605.1.15 (KHTML, like Gecko) Version/14.0.3 Safari/605.1.15",Macintosh,Safari,14.0.3,"OS X",10_14_6
57,1,null,null,html-keyboard-response,50,131393,0.0-50.0,IwAR0DUIiQqMk9Y8a1lkgfzPs2Wlg4kz8TnvUH-hEjQWX7cr-jeu-ayo39hug,"<div style=""font-size:60px;"">+</div>","""","""","""","""","""","""","""","""","""","2021-05-05 15:10:27",117.210.204.220,"Mozilla/5.0 (Macintosh; Intel Mac OS X 10_14_6) AppleWebKit/605.1.15 (KHTML, like Gecko) Version/14.0.3 Safari/605.1.15",Macintosh,Safari,14.0.3,"OS X",10_14_6
57,1,875,z,html-keyboard-response,51,132270,0.0-51.0,IwAR0DUIiQqMk9Y8a1lkgfzPs2Wlg4kz8TnvUH-hEjQWX7cr-jeu-ayo39hug,"
    <img id = 'img_b1' width = 18% height = 32% style = 'position:absolute;top:10%;left:25%'>
    <img id = 'img_b2' width = 18% height = 32% style = 'position:absolute;top:10%;right:25%'>
    <img id = 'img_b3' width = 18% height = 32% style = 'position:absolute;bottom:10%;left:25%'>
    <img id = 'img_b4' width = 18% height = 32% style = 'position:absolute;bottom:10%;right:25%'>
    <div id = 'cum' style = 'position:absolute;top:5%;right:5%;font-size:calc(18px + 6 * ((100vw - 320px) / 680))'></div>
  ","""","""","""","""","""","""","""","""","""","2021-05-05 15:10:27",117.210.204.220,"Mozilla/5.0 (Macintosh; Intel Mac OS X 10_14_6) AppleWebKit/605.1.15 (KHTML, like Gecko) Version/14.0.3 Safari/605.1.15",Macintosh,Safari,14.0.3,"OS X",10_14_6
57,1,null,null,html-keyboard-response,52,133771,0.0-52.0,IwAR0DUIiQqMk9Y8a1lkgfzPs2Wlg4kz8TnvUH-hEjQWX7cr-jeu-ayo39hug,"
    <img id = 'img_b1' width = 18% height = 32% style = 'position:absolute;top:10%;left:25%'>
    <img id = 'img_b2' width = 18% height = 32% style = 'position:absolute;top:10%;right:25%'>
    <img id = 'img_b3' width = 18% height = 32% style = 'position:absolute;bottom:10%;left:25%'>
    <img id = 'img_b4' width = 18% height = 32% style = 'position:absolute;bottom:10%;right:25%'>
    <div id = 'band_txt'></div>
    <div id = 'cum' style = 'position:absolute;top:5%;right:5%;font-size:calc(18px + 6 * ((100vw - 320px) / 680))'></div>
  ","""","""","""","""","""","""","""","""","""","2021-05-05 15:10:27",117.210.204.220,"Mozilla/5.0 (Macintosh; Intel Mac OS X 10_14_6) AppleWebKit/605.1.15 (KHTML, like Gecko) Version/14.0.3 Safari/605.1.15",Macintosh,Safari,14.0.3,"OS X",10_14_6
57,1,null,null,html-keyboard-response,53,135527,0.0-53.0,IwAR0DUIiQqMk9Y8a1lkgfzPs2Wlg4kz8TnvUH-hEjQWX7cr-jeu-ayo39hug,"<div style=""font-size:60px;"">+</div>","""","""","""","""","""","""","""","""","""","2021-05-05 15:10:27",117.210.204.220,"Mozilla/5.0 (Macintosh; Intel Mac OS X 10_14_6) AppleWebKit/605.1.15 (KHTML, like Gecko) Version/14.0.3 Safari/605.1.15",Macintosh,Safari,14.0.3,"OS X",10_14_6
57,1,680,z,html-keyboard-response,54,136209,0.0-54.0,IwAR0DUIiQqMk9Y8a1lkgfzPs2Wlg4kz8TnvUH-hEjQWX7cr-jeu-ayo39hug,"
    <img id = 'img_b1' width = 18% height = 32% style = 'position:absolute;top:10%;left:25%'>
    <img id = 'img_b2' width = 18% height = 32% style = 'position:absolute;top:10%;right:25%'>
    <img id = 'img_b3' width = 18% height = 32% style = 'position:absolute;bottom:10%;left:25%'>
    <img id = 'img_b4' width = 18% height = 32% style = 'position:absolute;bottom:10%;right:25%'>
    <div id = 'cum' style = 'position:absolute;top:5%;right:5%;font-size:calc(18px + 6 * ((100vw - 320px) / 680))'></div>
  ","""","""","""","""","""","""","""","""","""","2021-05-05 15:10:27",117.210.204.220,"Mozilla/5.0 (Macintosh; Intel Mac OS X 10_14_6) AppleWebKit/605.1.15 (KHTML, like Gecko) Version/14.0.3 Safari/605.1.15",Macintosh,Safari,14.0.3,"OS X",10_14_6
57,1,null,null,html-keyboard-response,55,137711,0.0-55.0,IwAR0DUIiQqMk9Y8a1lkgfzPs2Wlg4kz8TnvUH-hEjQWX7cr-jeu-ayo39hug,"
    <img id = 'img_b1' width = 18% height = 32% style = 'position:absolute;top:10%;left:25%'>
    <img id = 'img_b2' width = 18% height = 32% style = 'position:absolute;top:10%;right:25%'>
    <img id = 'img_b3' width = 18% height = 32% style = 'position:absolute;bottom:10%;left:25%'>
    <img id = 'img_b4' width = 18% height = 32% style = 'position:absolute;bottom:10%;right:25%'>
    <div id = 'band_txt'></div>
    <div id = 'cum' style = 'position:absolute;top:5%;right:5%;font-size:calc(18px + 6 * ((100vw - 320px) / 680))'></div>
  ","""","""","""","""","""","""","""","""","""","2021-05-05 15:10:27",117.210.204.220,"Mozilla/5.0 (Macintosh; Intel Mac OS X 10_14_6) AppleWebKit/605.1.15 (KHTML, like Gecko) Version/14.0.3 Safari/605.1.15",Macintosh,Safari,14.0.3,"OS X",10_14_6
57,1,null,null,html-keyboard-response,56,139214,0.0-56.0,IwAR0DUIiQqMk9Y8a1lkgfzPs2Wlg4kz8TnvUH-hEjQWX7cr-jeu-ayo39hug,"<div style=""font-size:60px;"">+</div>","""","""","""","""","""","""","""","""","""","2021-05-05 15:10:27",117.210.204.220,"Mozilla/5.0 (Macintosh; Intel Mac OS X 10_14_6) AppleWebKit/605.1.15 (KHTML, like Gecko) Version/14.0.3 Safari/605.1.15",Macintosh,Safari,14.0.3,"OS X",10_14_6
57,1,621,z,html-keyboard-response,57,139836,0.0-57.0,IwAR0DUIiQqMk9Y8a1lkgfzPs2Wlg4kz8TnvUH-hEjQWX7cr-jeu-ayo39hug,"
    <img id = 'img_b1' width = 18% height = 32% style = 'position:absolute;top:10%;left:25%'>
    <img id = 'img_b2' width = 18% height = 32% style = 'position:absolute;top:10%;right:25%'>
    <img id = 'img_b3' width = 18% height = 32% style = 'position:absolute;bottom:10%;left:25%'>
    <img id = 'img_b4' width = 18% height = 32% style = 'position:absolute;bottom:10%;right:25%'>
    <div id = 'cum' style = 'position:absolute;top:5%;right:5%;font-size:calc(18px + 6 * ((100vw - 320px) / 680))'></div>
  ","""","""","""","""","""","""","""","""","""","2021-05-05 15:10:27",117.210.204.220,"Mozilla/5.0 (Macintosh; Intel Mac OS X 10_14_6) AppleWebKit/605.1.15 (KHTML, like Gecko) Version/14.0.3 Safari/605.1.15",Macintosh,Safari,14.0.3,"OS X",10_14_6
57,1,null,null,html-keyboard-response,58,141339,0.0-58.0,IwAR0DUIiQqMk9Y8a1lkgfzPs2Wlg4kz8TnvUH-hEjQWX7cr-jeu-ayo39hug,"
    <img id = 'img_b1' width = 18% height = 32% style = 'position:absolute;top:10%;left:25%'>
    <img id = 'img_b2' width = 18% height = 32% style = 'position:absolute;top:10%;right:25%'>
    <img id = 'img_b3' width = 18% height = 32% style = 'position:absolute;bottom:10%;left:25%'>
    <img id = 'img_b4' width = 18% height = 32% style = 'position:absolute;bottom:10%;right:25%'>
    <div id = 'band_txt'></div>
    <div id = 'cum' style = 'position:absolute;top:5%;right:5%;font-size:calc(18px + 6 * ((100vw - 320px) / 680))'></div>
  ","""","""","""","""","""","""","""","""","""","2021-05-05 15:10:27",117.210.204.220,"Mozilla/5.0 (Macintosh; Intel Mac OS X 10_14_6) AppleWebKit/605.1.15 (KHTML, like Gecko) Version/14.0.3 Safari/605.1.15",Macintosh,Safari,14.0.3,"OS X",10_14_6
57,1,null,null,html-keyboard-response,59,142844,0.0-59.0,IwAR0DUIiQqMk9Y8a1lkgfzPs2Wlg4kz8TnvUH-hEjQWX7cr-jeu-ayo39hug,"<div style=""font-size:60px;"">+</div>","""","""","""","""","""","""","""","""","""","2021-05-05 15:10:27",117.210.204.220,"Mozilla/5.0 (Macintosh; Intel Mac OS X 10_14_6) AppleWebKit/605.1.15 (KHTML, like Gecko) Version/14.0.3 Safari/605.1.15",Macintosh,Safari,14.0.3,"OS X",10_14_6
57,1,759,z,html-keyboard-response,60,143604,0.0-60.0,IwAR0DUIiQqMk9Y8a1lkgfzPs2Wlg4kz8TnvUH-hEjQWX7cr-jeu-ayo39hug,"
    <img id = 'img_b1' width = 18% height = 32% style = 'position:absolute;top:10%;left:25%'>
    <img id = 'img_b2' width = 18% height = 32% style = 'position:absolute;top:10%;right:25%'>
    <img id = 'img_b3' width = 18% height = 32% style = 'position:absolute;bottom:10%;left:25%'>
    <img id = 'img_b4' width = 18% height = 32% style = 'position:absolute;bottom:10%;right:25%'>
    <div id = 'cum' style = 'position:absolute;top:5%;right:5%;font-size:calc(18px + 6 * ((100vw - 320px) / 680))'></div>
  ","""","""","""","""","""","""","""","""","""","2021-05-05 15:10:27",117.210.204.220,"Mozilla/5.0 (Macintosh; Intel Mac OS X 10_14_6) AppleWebKit/605.1.15 (KHTML, like Gecko) Version/14.0.3 Safari/605.1.15",Macintosh,Safari,14.0.3,"OS X",10_14_6
57,1,null,null,html-keyboard-response,61,145107,0.0-61.0,IwAR0DUIiQqMk9Y8a1lkgfzPs2Wlg4kz8TnvUH-hEjQWX7cr-jeu-ayo39hug,"
    <img id = 'img_b1' width = 18% height = 32% style = 'position:absolute;top:10%;left:25%'>
    <img id = 'img_b2' width = 18% height = 32% style = 'position:absolute;top:10%;right:25%'>
    <img id = 'img_b3' width = 18% height = 32% style = 'position:absolute;bottom:10%;left:25%'>
    <img id = 'img_b4' width = 18% height = 32% style = 'position:absolute;bottom:10%;right:25%'>
    <div id = 'band_txt'></div>
    <div id = 'cum' style = 'position:absolute;top:5%;right:5%;font-size:calc(18px + 6 * ((100vw - 320px) / 680))'></div>
  ","""","""","""","""","""","""","""","""","""","2021-05-05 15:10:27",117.210.204.220,"Mozilla/5.0 (Macintosh; Intel Mac OS X 10_14_6) AppleWebKit/605.1.15 (KHTML, like Gecko) Version/14.0.3 Safari/605.1.15",Macintosh,Safari,14.0.3,"OS X",10_14_6
57,1,null,null,html-keyboard-response,62,146859,0.0-62.0,IwAR0DUIiQqMk9Y8a1lkgfzPs2Wlg4kz8TnvUH-hEjQWX7cr-jeu-ayo39hug,"<div style=""font-size:60px;"">+</div>","""","""","""","""","""","""","""","""","""","2021-05-05 15:10:27",117.210.204.220,"Mozilla/5.0 (Macintosh; Intel Mac OS X 10_14_6) AppleWebKit/605.1.15 (KHTML, like Gecko) Version/14.0.3 Safari/605.1.15",Macintosh,Safari,14.0.3,"OS X",10_14_6
57,1,1072,z,html-keyboard-response,63,147932,0.0-63.0,IwAR0DUIiQqMk9Y8a1lkgfzPs2Wlg4kz8TnvUH-hEjQWX7cr-jeu-ayo39hug,"
    <img id = 'img_b1' width = 18% height = 32% style = 'position:absolute;top:10%;left:25%'>
    <img id = 'img_b2' width = 18% height = 32% style = 'position:absolute;top:10%;right:25%'>
    <img id = 'img_b3' width = 18% height = 32% style = 'position:absolute;bottom:10%;left:25%'>
    <img id = 'img_b4' width = 18% height = 32% style = 'position:absolute;bottom:10%;right:25%'>
    <div id = 'cum' style = 'position:absolute;top:5%;right:5%;font-size:calc(18px + 6 * ((100vw - 320px) / 680))'></div>
  ","""","""","""","""","""","""","""","""","""","2021-05-05 15:10:27",117.210.204.220,"Mozilla/5.0 (Macintosh; Intel Mac OS X 10_14_6) AppleWebKit/605.1.15 (KHTML, like Gecko) Version/14.0.3 Safari/605.1.15",Macintosh,Safari,14.0.3,"OS X",10_14_6
57,1,null,null,html-keyboard-response,64,149437,0.0-64.0,IwAR0DUIiQqMk9Y8a1lkgfzPs2Wlg4kz8TnvUH-hEjQWX7cr-jeu-ayo39hug,"
    <img id = 'img_b1' width = 18% height = 32% style = 'position:absolute;top:10%;left:25%'>
    <img id = 'img_b2' width = 18% height = 32% style = 'position:absolute;top:10%;right:25%'>
    <img id = 'img_b3' width = 18% height = 32% style = 'position:absolute;bottom:10%;left:25%'>
    <img id = 'img_b4' width = 18% height = 32% style = 'position:absolute;bottom:10%;right:25%'>
    <div id = 'band_txt'></div>
    <div id = 'cum' style = 'position:absolute;top:5%;right:5%;font-size:calc(18px + 6 * ((100vw - 320px) / 680))'></div>
  ","""","""","""","""","""","""","""","""","""","2021-05-05 15:10:27",117.210.204.220,"Mozilla/5.0 (Macintosh; Intel Mac OS X 10_14_6) AppleWebKit/605.1.15 (KHTML, like Gecko) Version/14.0.3 Safari/605.1.15",Macintosh,Safari,14.0.3,"OS X",10_14_6
57,1,null,null,html-keyboard-response,65,150940,0.0-65.0,IwAR0DUIiQqMk9Y8a1lkgfzPs2Wlg4kz8TnvUH-hEjQWX7cr-jeu-ayo39hug,"<div style=""font-size:60px;"">+</div>","""","""","""","""","""","""","""","""","""","2021-05-05 15:10:27",117.210.204.220,"Mozilla/5.0 (Macintosh; Intel Mac OS X 10_14_6) AppleWebKit/605.1.15 (KHTML, like Gecko) Version/14.0.3 Safari/605.1.15",Macintosh,Safari,14.0.3,"OS X",10_14_6
57,1,698,z,html-keyboard-response,66,151639,0.0-66.0,IwAR0DUIiQqMk9Y8a1lkgfzPs2Wlg4kz8TnvUH-hEjQWX7cr-jeu-ayo39hug,"
    <img id = 'img_b1' width = 18% height = 32% style = 'position:absolute;top:10%;left:25%'>
    <img id = 'img_b2' width = 18% height = 32% style = 'position:absolute;top:10%;right:25%'>
    <img id = 'img_b3' width = 18% height = 32% style = 'position:absolute;bottom:10%;left:25%'>
    <img id = 'img_b4' width = 18% height = 32% style = 'position:absolute;bottom:10%;right:25%'>
    <div id = 'cum' style = 'position:absolute;top:5%;right:5%;font-size:calc(18px + 6 * ((100vw - 320px) / 680))'></div>
  ","""","""","""","""","""","""","""","""","""","2021-05-05 15:10:27",117.210.204.220,"Mozilla/5.0 (Macintosh; Intel Mac OS X 10_14_6) AppleWebKit/605.1.15 (KHTML, like Gecko) Version/14.0.3 Safari/605.1.15",Macintosh,Safari,14.0.3,"OS X",10_14_6
57,1,null,null,html-keyboard-response,67,153141,0.0-67.0,IwAR0DUIiQqMk9Y8a1lkgfzPs2Wlg4kz8TnvUH-hEjQWX7cr-jeu-ayo39hug,"
    <img id = 'img_b1' width = 18% height = 32% style = 'position:absolute;top:10%;left:25%'>
    <img id = 'img_b2' width = 18% height = 32% style = 'position:absolute;top:10%;right:25%'>
    <img id = 'img_b3' width = 18% height = 32% style = 'position:absolute;bottom:10%;left:25%'>
    <img id = 'img_b4' width = 18% height = 32% style = 'position:absolute;bottom:10%;right:25%'>
    <div id = 'band_txt'></div>
    <div id = 'cum' style = 'position:absolute;top:5%;right:5%;font-size:calc(18px + 6 * ((100vw - 320px) / 680))'></div>
  ","""","""","""","""","""","""","""","""","""","2021-05-05 15:10:27",117.210.204.220,"Mozilla/5.0 (Macintosh; Intel Mac OS X 10_14_6) AppleWebKit/605.1.15 (KHTML, like Gecko) Version/14.0.3 Safari/605.1.15",Macintosh,Safari,14.0.3,"OS X",10_14_6
57,1,null,null,html-keyboard-response,68,154643,0.0-68.0,IwAR0DUIiQqMk9Y8a1lkgfzPs2Wlg4kz8TnvUH-hEjQWX7cr-jeu-ayo39hug,"<div style=""font-size:60px;"">+</div>","""","""","""","""","""","""","""","""","""","2021-05-05 15:10:27",117.210.204.220,"Mozilla/5.0 (Macintosh; Intel Mac OS X 10_14_6) AppleWebKit/605.1.15 (KHTML, like Gecko) Version/14.0.3 Safari/605.1.15",Macintosh,Safari,14.0.3,"OS X",10_14_6
57,1,2458,z,html-keyboard-response,69,157108,0.0-69.0,IwAR0DUIiQqMk9Y8a1lkgfzPs2Wlg4kz8TnvUH-hEjQWX7cr-jeu-ayo39hug,"
    <img id = 'img_b1' width = 18% height = 32% style = 'position:absolute;top:10%;left:25%'>
    <img id = 'img_b2' width = 18% height = 32% style = 'position:absolute;top:10%;right:25%'>
    <img id = 'img_b3' width = 18% height = 32% style = 'position:absolute;bottom:10%;left:25%'>
    <img id = 'img_b4' width = 18% height = 32% style = 'position:absolute;bottom:10%;right:25%'>
    <div id = 'cum' style = 'position:absolute;top:5%;right:5%;font-size:calc(18px + 6 * ((100vw - 320px) / 680))'></div>
  ","""","""","""","""","""","""","""","""","""","2021-05-05 15:10:27",117.210.204.220,"Mozilla/5.0 (Macintosh; Intel Mac OS X 10_14_6) AppleWebKit/605.1.15 (KHTML, like Gecko) Version/14.0.3 Safari/605.1.15",Macintosh,Safari,14.0.3,"OS X",10_14_6
57,1,null,null,html-keyboard-response,70,158609,0.0-70.0,IwAR0DUIiQqMk9Y8a1lkgfzPs2Wlg4kz8TnvUH-hEjQWX7cr-jeu-ayo39hug,"
    <img id = 'img_b1' width = 18% height = 32% style = 'position:absolute;top:10%;left:25%'>
    <img id = 'img_b2' width = 18% height = 32% style = 'position:absolute;top:10%;right:25%'>
    <img id = 'img_b3' width = 18% height = 32% style = 'position:absolute;bottom:10%;left:25%'>
    <img id = 'img_b4' width = 18% height = 32% style = 'position:absolute;bottom:10%;right:25%'>
    <div id = 'band_txt'></div>
    <div id = 'cum' style = 'position:absolute;top:5%;right:5%;font-size:calc(18px + 6 * ((100vw - 320px) / 680))'></div>
  ","""","""","""","""","""","""","""","""","""","2021-05-05 15:10:27",117.210.204.220,"Mozilla/5.0 (Macintosh; Intel Mac OS X 10_14_6) AppleWebKit/605.1.15 (KHTML, like Gecko) Version/14.0.3 Safari/605.1.15",Macintosh,Safari,14.0.3,"OS X",10_14_6
57,1,null,null,html-keyboard-response,71,160111,0.0-71.0,IwAR0DUIiQqMk9Y8a1lkgfzPs2Wlg4kz8TnvUH-hEjQWX7cr-jeu-ayo39hug,"<div style=""font-size:60px;"">+</div>","""","""","""","""","""","""","""","""","""","2021-05-05 15:10:27",117.210.204.220,"Mozilla/5.0 (Macintosh; Intel Mac OS X 10_14_6) AppleWebKit/605.1.15 (KHTML, like Gecko) Version/14.0.3 Safari/605.1.15",Macintosh,Safari,14.0.3,"OS X",10_14_6
57,1,841,z,html-keyboard-response,72,160954,0.0-72.0,IwAR0DUIiQqMk9Y8a1lkgfzPs2Wlg4kz8TnvUH-hEjQWX7cr-jeu-ayo39hug,"
    <img id = 'img_b1' width = 18% height = 32% style = 'position:absolute;top:10%;left:25%'>
    <img id = 'img_b2' width = 18% height = 32% style = 'position:absolute;top:10%;right:25%'>
    <img id = 'img_b3' width = 18% height = 32% style = 'position:absolute;bottom:10%;left:25%'>
    <img id = 'img_b4' width = 18% height = 32% style = 'position:absolute;bottom:10%;right:25%'>
    <div id = 'cum' style = 'position:absolute;top:5%;right:5%;font-size:calc(18px + 6 * ((100vw - 320px) / 680))'></div>
  ","""","""","""","""","""","""","""","""","""","2021-05-05 15:10:27",117.210.204.220,"Mozilla/5.0 (Macintosh; Intel Mac OS X 10_14_6) AppleWebKit/605.1.15 (KHTML, like Gecko) Version/14.0.3 Safari/605.1.15",Macintosh,Safari,14.0.3,"OS X",10_14_6
57,1,null,null,html-keyboard-response,73,162457,0.0-73.0,IwAR0DUIiQqMk9Y8a1lkgfzPs2Wlg4kz8TnvUH-hEjQWX7cr-jeu-ayo39hug,"
    <img id = 'img_b1' width = 18% height = 32% style = 'position:absolute;top:10%;left:25%'>
    <img id = 'img_b2' width = 18% height = 32% style = 'position:absolute;top:10%;right:25%'>
    <img id = 'img_b3' width = 18% height = 32% style = 'position:absolute;bottom:10%;left:25%'>
    <img id = 'img_b4' width = 18% height = 32% style = 'position:absolute;bottom:10%;right:25%'>
    <div id = 'band_txt'></div>
    <div id = 'cum' style = 'position:absolute;top:5%;right:5%;font-size:calc(18px + 6 * ((100vw - 320px) / 680))'></div>
  ","""","""","""","""","""","""","""","""","""","2021-05-05 15:10:27",117.210.204.220,"Mozilla/5.0 (Macintosh; Intel Mac OS X 10_14_6) AppleWebKit/605.1.15 (KHTML, like Gecko) Version/14.0.3 Safari/605.1.15",Macintosh,Safari,14.0.3,"OS X",10_14_6
57,1,null,null,html-keyboard-response,74,163962,0.0-74.0,IwAR0DUIiQqMk9Y8a1lkgfzPs2Wlg4kz8TnvUH-hEjQWX7cr-jeu-ayo39hug,"<div style=""font-size:60px;"">+</div>","""","""","""","""","""","""","""","""","""","2021-05-05 15:10:27",117.210.204.220,"Mozilla/5.0 (Macintosh; Intel Mac OS X 10_14_6) AppleWebKit/605.1.15 (KHTML, like Gecko) Version/14.0.3 Safari/605.1.15",Macintosh,Safari,14.0.3,"OS X",10_14_6
57,1,810,p,html-keyboard-response,75,164773,0.0-75.0,IwAR0DUIiQqMk9Y8a1lkgfzPs2Wlg4kz8TnvUH-hEjQWX7cr-jeu-ayo39hug,"
    <img id = 'img_b1' width = 18% height = 32% style = 'position:absolute;top:10%;left:25%'>
    <img id = 'img_b2' width = 18% height = 32% style = 'position:absolute;top:10%;right:25%'>
    <img id = 'img_b3' width = 18% height = 32% style = 'position:absolute;bottom:10%;left:25%'>
    <img id = 'img_b4' width = 18% height = 32% style = 'position:absolute;bottom:10%;right:25%'>
    <div id = 'cum' style = 'position:absolute;top:5%;right:5%;font-size:calc(18px + 6 * ((100vw - 320px) / 680))'></div>
  ","""","""","""","""","""","""","""","""","""","2021-05-05 15:10:27",117.210.204.220,"Mozilla/5.0 (Macintosh; Intel Mac OS X 10_14_6) AppleWebKit/605.1.15 (KHTML, like Gecko) Version/14.0.3 Safari/605.1.15",Macintosh,Safari,14.0.3,"OS X",10_14_6
57,1,null,null,html-keyboard-response,76,166275,0.0-76.0,IwAR0DUIiQqMk9Y8a1lkgfzPs2Wlg4kz8TnvUH-hEjQWX7cr-jeu-ayo39hug,"
    <img id = 'img_b1' width = 18% height = 32% style = 'position:absolute;top:10%;left:25%'>
    <img id = 'img_b2' width = 18% height = 32% style = 'position:absolute;top:10%;right:25%'>
    <img id = 'img_b3' width = 18% height = 32% style = 'position:absolute;bottom:10%;left:25%'>
    <img id = 'img_b4' width = 18% height = 32% style = 'position:absolute;bottom:10%;right:25%'>
    <div id = 'band_txt'></div>
    <div id = 'cum' style = 'position:absolute;top:5%;right:5%;font-size:calc(18px + 6 * ((100vw - 320px) / 680))'></div>
  ","""","""","""","""","""","""","""","""","""","2021-05-05 15:10:27",117.210.204.220,"Mozilla/5.0 (Macintosh; Intel Mac OS X 10_14_6) AppleWebKit/605.1.15 (KHTML, like Gecko) Version/14.0.3 Safari/605.1.15",Macintosh,Safari,14.0.3,"OS X",10_14_6
57,1,null,null,html-keyboard-response,77,168028,0.0-77.0,IwAR0DUIiQqMk9Y8a1lkgfzPs2Wlg4kz8TnvUH-hEjQWX7cr-jeu-ayo39hug,"<div style=""font-size:60px;"">+</div>","""","""","""","""","""","""","""","""","""","2021-05-05 15:10:27",117.210.204.220,"Mozilla/5.0 (Macintosh; Intel Mac OS X 10_14_6) AppleWebKit/605.1.15 (KHTML, like Gecko) Version/14.0.3 Safari/605.1.15",Macintosh,Safari,14.0.3,"OS X",10_14_6
57,1,685,m,html-keyboard-response,78,168715,0.0-78.0,IwAR0DUIiQqMk9Y8a1lkgfzPs2Wlg4kz8TnvUH-hEjQWX7cr-jeu-ayo39hug,"
    <img id = 'img_b1' width = 18% height = 32% style = 'position:absolute;top:10%;left:25%'>
    <img id = 'img_b2' width = 18% height = 32% style = 'position:absolute;top:10%;right:25%'>
    <img id = 'img_b3' width = 18% height = 32% style = 'position:absolute;bottom:10%;left:25%'>
    <img id = 'img_b4' width = 18% height = 32% style = 'position:absolute;bottom:10%;right:25%'>
    <div id = 'cum' style = 'position:absolute;top:5%;right:5%;font-size:calc(18px + 6 * ((100vw - 320px) / 680))'></div>
  ","""","""","""","""","""","""","""","""","""","2021-05-05 15:10:27",117.210.204.220,"Mozilla/5.0 (Macintosh; Intel Mac OS X 10_14_6) AppleWebKit/605.1.15 (KHTML, like Gecko) Version/14.0.3 Safari/605.1.15",Macintosh,Safari,14.0.3,"OS X",10_14_6
57,1,null,null,html-keyboard-response,79,170217,0.0-79.0,IwAR0DUIiQqMk9Y8a1lkgfzPs2Wlg4kz8TnvUH-hEjQWX7cr-jeu-ayo39hug,"
    <img id = 'img_b1' width = 18% height = 32% style = 'position:absolute;top:10%;left:25%'>
    <img id = 'img_b2' width = 18% height = 32% style = 'position:absolute;top:10%;right:25%'>
    <img id = 'img_b3' width = 18% height = 32% style = 'position:absolute;bottom:10%;left:25%'>
    <img id = 'img_b4' width = 18% height = 32% style = 'position:absolute;bottom:10%;right:25%'>
    <div id = 'band_txt'></div>
    <div id = 'cum' style = 'position:absolute;top:5%;right:5%;font-size:calc(18px + 6 * ((100vw - 320px) / 680))'></div>
  ","""","""","""","""","""","""","""","""","""","2021-05-05 15:10:27",117.210.204.220,"Mozilla/5.0 (Macintosh; Intel Mac OS X 10_14_6) AppleWebKit/605.1.15 (KHTML, like Gecko) Version/14.0.3 Safari/605.1.15",Macintosh,Safari,14.0.3,"OS X",10_14_6
57,1,null,null,html-keyboard-response,80,171722,0.0-80.0,IwAR0DUIiQqMk9Y8a1lkgfzPs2Wlg4kz8TnvUH-hEjQWX7cr-jeu-ayo39hug,"<div style=""font-size:60px;"">+</div>","""","""","""","""","""","""","""","""","""","2021-05-05 15:10:27",117.210.204.220,"Mozilla/5.0 (Macintosh; Intel Mac OS X 10_14_6) AppleWebKit/605.1.15 (KHTML, like Gecko) Version/14.0.3 Safari/605.1.15",Macintosh,Safari,14.0.3,"OS X",10_14_6
57,1,1042,z,html-keyboard-response,81,172765,0.0-81.0,IwAR0DUIiQqMk9Y8a1lkgfzPs2Wlg4kz8TnvUH-hEjQWX7cr-jeu-ayo39hug,"
    <img id = 'img_b1' width = 18% height = 32% style = 'position:absolute;top:10%;left:25%'>
    <img id = 'img_b2' width = 18% height = 32% style = 'position:absolute;top:10%;right:25%'>
    <img id = 'img_b3' width = 18% height = 32% style = 'position:absolute;bottom:10%;left:25%'>
    <img id = 'img_b4' width = 18% height = 32% style = 'position:absolute;bottom:10%;right:25%'>
    <div id = 'cum' style = 'position:absolute;top:5%;right:5%;font-size:calc(18px + 6 * ((100vw - 320px) / 680))'></div>
  ","""","""","""","""","""","""","""","""","""","2021-05-05 15:10:27",117.210.204.220,"Mozilla/5.0 (Macintosh; Intel Mac OS X 10_14_6) AppleWebKit/605.1.15 (KHTML, like Gecko) Version/14.0.3 Safari/605.1.15",Macintosh,Safari,14.0.3,"OS X",10_14_6
57,1,null,null,html-keyboard-response,82,174267,0.0-82.0,IwAR0DUIiQqMk9Y8a1lkgfzPs2Wlg4kz8TnvUH-hEjQWX7cr-jeu-ayo39hug,"
    <img id = 'img_b1' width = 18% height = 32% style = 'position:absolute;top:10%;left:25%'>
    <img id = 'img_b2' width = 18% height = 32% style = 'position:absolute;top:10%;right:25%'>
    <img id = 'img_b3' width = 18% height = 32% style = 'position:absolute;bottom:10%;left:25%'>
    <img id = 'img_b4' width = 18% height = 32% style = 'position:absolute;bottom:10%;right:25%'>
    <div id = 'band_txt'></div>
    <div id = 'cum' style = 'position:absolute;top:5%;right:5%;font-size:calc(18px + 6 * ((100vw - 320px) / 680))'></div>
  ","""","""","""","""","""","""","""","""","""","2021-05-05 15:10:27",117.210.204.220,"Mozilla/5.0 (Macintosh; Intel Mac OS X 10_14_6) AppleWebKit/605.1.15 (KHTML, like Gecko) Version/14.0.3 Safari/605.1.15",Macintosh,Safari,14.0.3,"OS X",10_14_6
57,1,null,null,html-keyboard-response,83,175270,0.0-83.0,IwAR0DUIiQqMk9Y8a1lkgfzPs2Wlg4kz8TnvUH-hEjQWX7cr-jeu-ayo39hug,"<div style=""font-size:60px;"">+</div>","""","""","""","""","""","""","""","""","""","2021-05-05 15:10:27",117.210.204.220,"Mozilla/5.0 (Macintosh; Intel Mac OS X 10_14_6) AppleWebKit/605.1.15 (KHTML, like Gecko) Version/14.0.3 Safari/605.1.15",Macintosh,Safari,14.0.3,"OS X",10_14_6
57,1,978,m,html-keyboard-response,84,176249,0.0-84.0,IwAR0DUIiQqMk9Y8a1lkgfzPs2Wlg4kz8TnvUH-hEjQWX7cr-jeu-ayo39hug,"
    <img id = 'img_b1' width = 18% height = 32% style = 'position:absolute;top:10%;left:25%'>
    <img id = 'img_b2' width = 18% height = 32% style = 'position:absolute;top:10%;right:25%'>
    <img id = 'img_b3' width = 18% height = 32% style = 'position:absolute;bottom:10%;left:25%'>
    <img id = 'img_b4' width = 18% height = 32% style = 'position:absolute;bottom:10%;right:25%'>
    <div id = 'cum' style = 'position:absolute;top:5%;right:5%;font-size:calc(18px + 6 * ((100vw - 320px) / 680))'></div>
  ","""","""","""","""","""","""","""","""","""","2021-05-05 15:10:27",117.210.204.220,"Mozilla/5.0 (Macintosh; Intel Mac OS X 10_14_6) AppleWebKit/605.1.15 (KHTML, like Gecko) Version/14.0.3 Safari/605.1.15",Macintosh,Safari,14.0.3,"OS X",10_14_6
57,1,null,null,html-keyboard-response,85,177751,0.0-85.0,IwAR0DUIiQqMk9Y8a1lkgfzPs2Wlg4kz8TnvUH-hEjQWX7cr-jeu-ayo39hug,"
    <img id = 'img_b1' width = 18% height = 32% style = 'position:absolute;top:10%;left:25%'>
    <img id = 'img_b2' width = 18% height = 32% style = 'position:absolute;top:10%;right:25%'>
    <img id = 'img_b3' width = 18% height = 32% style = 'position:absolute;bottom:10%;left:25%'>
    <img id = 'img_b4' width = 18% height = 32% style = 'position:absolute;bottom:10%;right:25%'>
    <div id = 'band_txt'></div>
    <div id = 'cum' style = 'position:absolute;top:5%;right:5%;font-size:calc(18px + 6 * ((100vw - 320px) / 680))'></div>
  ","""","""","""","""","""","""","""","""","""","2021-05-05 15:10:27",117.210.204.220,"Mozilla/5.0 (Macintosh; Intel Mac OS X 10_14_6) AppleWebKit/605.1.15 (KHTML, like Gecko) Version/14.0.3 Safari/605.1.15",Macintosh,Safari,14.0.3,"OS X",10_14_6
57,1,null,null,html-keyboard-response,86,179008,0.0-86.0,IwAR0DUIiQqMk9Y8a1lkgfzPs2Wlg4kz8TnvUH-hEjQWX7cr-jeu-ayo39hug,"<div style=""font-size:60px;"">+</div>","""","""","""","""","""","""","""","""","""","2021-05-05 15:10:27",117.210.204.220,"Mozilla/5.0 (Macintosh; Intel Mac OS X 10_14_6) AppleWebKit/605.1.15 (KHTML, like Gecko) Version/14.0.3 Safari/605.1.15",Macintosh,Safari,14.0.3,"OS X",10_14_6
57,1,746,z,html-keyboard-response,87,179755,0.0-87.0,IwAR0DUIiQqMk9Y8a1lkgfzPs2Wlg4kz8TnvUH-hEjQWX7cr-jeu-ayo39hug,"
    <img id = 'img_b1' width = 18% height = 32% style = 'position:absolute;top:10%;left:25%'>
    <img id = 'img_b2' width = 18% height = 32% style = 'position:absolute;top:10%;right:25%'>
    <img id = 'img_b3' width = 18% height = 32% style = 'position:absolute;bottom:10%;left:25%'>
    <img id = 'img_b4' width = 18% height = 32% style = 'position:absolute;bottom:10%;right:25%'>
    <div id = 'cum' style = 'position:absolute;top:5%;right:5%;font-size:calc(18px + 6 * ((100vw - 320px) / 680))'></div>
  ","""","""","""","""","""","""","""","""","""","2021-05-05 15:10:27",117.210.204.220,"Mozilla/5.0 (Macintosh; Intel Mac OS X 10_14_6) AppleWebKit/605.1.15 (KHTML, like Gecko) Version/14.0.3 Safari/605.1.15",Macintosh,Safari,14.0.3,"OS X",10_14_6
57,1,null,null,html-keyboard-response,88,181257,0.0-88.0,IwAR0DUIiQqMk9Y8a1lkgfzPs2Wlg4kz8TnvUH-hEjQWX7cr-jeu-ayo39hug,"
    <img id = 'img_b1' width = 18% height = 32% style = 'position:absolute;top:10%;left:25%'>
    <img id = 'img_b2' width = 18% height = 32% style = 'position:absolute;top:10%;right:25%'>
    <img id = 'img_b3' width = 18% height = 32% style = 'position:absolute;bottom:10%;left:25%'>
    <img id = 'img_b4' width = 18% height = 32% style = 'position:absolute;bottom:10%;right:25%'>
    <div id = 'band_txt'></div>
    <div id = 'cum' style = 'position:absolute;top:5%;right:5%;font-size:calc(18px + 6 * ((100vw - 320px) / 680))'></div>
  ","""","""","""","""","""","""","""","""","""","2021-05-05 15:10:27",117.210.204.220,"Mozilla/5.0 (Macintosh; Intel Mac OS X 10_14_6) AppleWebKit/605.1.15 (KHTML, like Gecko) Version/14.0.3 Safari/605.1.15",Macintosh,Safari,14.0.3,"OS X",10_14_6
57,1,null,null,html-keyboard-response,89,182009,0.0-89.0,IwAR0DUIiQqMk9Y8a1lkgfzPs2Wlg4kz8TnvUH-hEjQWX7cr-jeu-ayo39hug,"<div style=""font-size:60px;"">+</div>","""","""","""","""","""","""","""","""","""","2021-05-05 15:10:27",117.210.204.220,"Mozilla/5.0 (Macintosh; Intel Mac OS X 10_14_6) AppleWebKit/605.1.15 (KHTML, like Gecko) Version/14.0.3 Safari/605.1.15",Macintosh,Safari,14.0.3,"OS X",10_14_6
57,1,1244,z,html-keyboard-response,90,183254,0.0-90.0,IwAR0DUIiQqMk9Y8a1lkgfzPs2Wlg4kz8TnvUH-hEjQWX7cr-jeu-ayo39hug,"
    <img id = 'img_b1' width = 18% height = 32% style = 'position:absolute;top:10%;left:25%'>
    <img id = 'img_b2' width = 18% height = 32% style = 'position:absolute;top:10%;right:25%'>
    <img id = 'img_b3' width = 18% height = 32% style = 'position:absolute;bottom:10%;left:25%'>
    <img id = 'img_b4' width = 18% height = 32% style = 'position:absolute;bottom:10%;right:25%'>
    <div id = 'cum' style = 'position:absolute;top:5%;right:5%;font-size:calc(18px + 6 * ((100vw - 320px) / 680))'></div>
  ","""","""","""","""","""","""","""","""","""","2021-05-05 15:10:27",117.210.204.220,"Mozilla/5.0 (Macintosh; Intel Mac OS X 10_14_6) AppleWebKit/605.1.15 (KHTML, like Gecko) Version/14.0.3 Safari/605.1.15",Macintosh,Safari,14.0.3,"OS X",10_14_6
57,1,null,null,html-keyboard-response,91,184757,0.0-91.0,IwAR0DUIiQqMk9Y8a1lkgfzPs2Wlg4kz8TnvUH-hEjQWX7cr-jeu-ayo39hug,"
    <img id = 'img_b1' width = 18% height = 32% style = 'position:absolute;top:10%;left:25%'>
    <img id = 'img_b2' width = 18% height = 32% style = 'position:absolute;top:10%;right:25%'>
    <img id = 'img_b3' width = 18% height = 32% style = 'position:absolute;bottom:10%;left:25%'>
    <img id = 'img_b4' width = 18% height = 32% style = 'position:absolute;bottom:10%;right:25%'>
    <div id = 'band_txt'></div>
    <div id = 'cum' style = 'position:absolute;top:5%;right:5%;font-size:calc(18px + 6 * ((100vw - 320px) / 680))'></div>
  ","""","""","""","""","""","""","""","""","""","2021-05-05 15:10:27",117.210.204.220,"Mozilla/5.0 (Macintosh; Intel Mac OS X 10_14_6) AppleWebKit/605.1.15 (KHTML, like Gecko) Version/14.0.3 Safari/605.1.15",Macintosh,Safari,14.0.3,"OS X",10_14_6
57,1,null,null,html-keyboard-response,92,185512,0.0-92.0,IwAR0DUIiQqMk9Y8a1lkgfzPs2Wlg4kz8TnvUH-hEjQWX7cr-jeu-ayo39hug,"<div style=""font-size:60px;"">+</div>","""","""","""","""","""","""","""","""","""","2021-05-05 15:10:27",117.210.204.220,"Mozilla/5.0 (Macintosh; Intel Mac OS X 10_14_6) AppleWebKit/605.1.15 (KHTML, like Gecko) Version/14.0.3 Safari/605.1.15",Macintosh,Safari,14.0.3,"OS X",10_14_6
57,1,3307,z,html-keyboard-response,93,188820,0.0-93.0,IwAR0DUIiQqMk9Y8a1lkgfzPs2Wlg4kz8TnvUH-hEjQWX7cr-jeu-ayo39hug,"
    <img id = 'img_b1' width = 18% height = 32% style = 'position:absolute;top:10%;left:25%'>
    <img id = 'img_b2' width = 18% height = 32% style = 'position:absolute;top:10%;right:25%'>
    <img id = 'img_b3' width = 18% height = 32% style = 'position:absolute;bottom:10%;left:25%'>
    <img id = 'img_b4' width = 18% height = 32% style = 'position:absolute;bottom:10%;right:25%'>
    <div id = 'cum' style = 'position:absolute;top:5%;right:5%;font-size:calc(18px + 6 * ((100vw - 320px) / 680))'></div>
  ","""","""","""","""","""","""","""","""","""","2021-05-05 15:10:27",117.210.204.220,"Mozilla/5.0 (Macintosh; Intel Mac OS X 10_14_6) AppleWebKit/605.1.15 (KHTML, like Gecko) Version/14.0.3 Safari/605.1.15",Macintosh,Safari,14.0.3,"OS X",10_14_6
57,1,null,null,html-keyboard-response,94,190323,0.0-94.0,IwAR0DUIiQqMk9Y8a1lkgfzPs2Wlg4kz8TnvUH-hEjQWX7cr-jeu-ayo39hug,"
    <img id = 'img_b1' width = 18% height = 32% style = 'position:absolute;top:10%;left:25%'>
    <img id = 'img_b2' width = 18% height = 32% style = 'position:absolute;top:10%;right:25%'>
    <img id = 'img_b3' width = 18% height = 32% style = 'position:absolute;bottom:10%;left:25%'>
    <img id = 'img_b4' width = 18% height = 32% style = 'position:absolute;bottom:10%;right:25%'>
    <div id = 'band_txt'></div>
    <div id = 'cum' style = 'position:absolute;top:5%;right:5%;font-size:calc(18px + 6 * ((100vw - 320px) / 680))'></div>
  ","""","""","""","""","""","""","""","""","""","2021-05-05 15:10:27",117.210.204.220,"Mozilla/5.0 (Macintosh; Intel Mac OS X 10_14_6) AppleWebKit/605.1.15 (KHTML, like Gecko) Version/14.0.3 Safari/605.1.15",Macintosh,Safari,14.0.3,"OS X",10_14_6
57,1,null,null,html-keyboard-response,95,191075,0.0-95.0,IwAR0DUIiQqMk9Y8a1lkgfzPs2Wlg4kz8TnvUH-hEjQWX7cr-jeu-ayo39hug,"<div style=""font-size:60px;"">+</div>","""","""","""","""","""","""","""","""","""","2021-05-05 15:10:27",117.210.204.220,"Mozilla/5.0 (Macintosh; Intel Mac OS X 10_14_6) AppleWebKit/605.1.15 (KHTML, like Gecko) Version/14.0.3 Safari/605.1.15",Macintosh,Safari,14.0.3,"OS X",10_14_6
57,1,743.0000000000291,z,html-keyboard-response,96,191819,0.0-96.0,IwAR0DUIiQqMk9Y8a1lkgfzPs2Wlg4kz8TnvUH-hEjQWX7cr-jeu-ayo39hug,"
    <img id = 'img_b1' width = 18% height = 32% style = 'position:absolute;top:10%;left:25%'>
    <img id = 'img_b2' width = 18% height = 32% style = 'position:absolute;top:10%;right:25%'>
    <img id = 'img_b3' width = 18% height = 32% style = 'position:absolute;bottom:10%;left:25%'>
    <img id = 'img_b4' width = 18% height = 32% style = 'position:absolute;bottom:10%;right:25%'>
    <div id = 'cum' style = 'position:absolute;top:5%;right:5%;font-size:calc(18px + 6 * ((100vw - 320px) / 680))'></div>
  ","""","""","""","""","""","""","""","""","""","2021-05-05 15:10:27",117.210.204.220,"Mozilla/5.0 (Macintosh; Intel Mac OS X 10_14_6) AppleWebKit/605.1.15 (KHTML, like Gecko) Version/14.0.3 Safari/605.1.15",Macintosh,Safari,14.0.3,"OS X",10_14_6
57,1,null,null,html-keyboard-response,97,193321,0.0-97.0,IwAR0DUIiQqMk9Y8a1lkgfzPs2Wlg4kz8TnvUH-hEjQWX7cr-jeu-ayo39hug,"
    <img id = 'img_b1' width = 18% height = 32% style = 'position:absolute;top:10%;left:25%'>
    <img id = 'img_b2' width = 18% height = 32% style = 'position:absolute;top:10%;right:25%'>
    <img id = 'img_b3' width = 18% height = 32% style = 'position:absolute;bottom:10%;left:25%'>
    <img id = 'img_b4' width = 18% height = 32% style = 'position:absolute;bottom:10%;right:25%'>
    <div id = 'band_txt'></div>
    <div id = 'cum' style = 'position:absolute;top:5%;right:5%;font-size:calc(18px + 6 * ((100vw - 320px) / 680))'></div>
  ","""","""","""","""","""","""","""","""","""","2021-05-05 15:10:27",117.210.204.220,"Mozilla/5.0 (Macintosh; Intel Mac OS X 10_14_6) AppleWebKit/605.1.15 (KHTML, like Gecko) Version/14.0.3 Safari/605.1.15",Macintosh,Safari,14.0.3,"OS X",10_14_6
57,1,null,null,html-keyboard-response,98,194076,0.0-98.0,IwAR0DUIiQqMk9Y8a1lkgfzPs2Wlg4kz8TnvUH-hEjQWX7cr-jeu-ayo39hug,"<div style=""font-size:60px;"">+</div>","""","""","""","""","""","""","""","""","""","2021-05-05 15:10:27",117.210.204.220,"Mozilla/5.0 (Macintosh; Intel Mac OS X 10_14_6) AppleWebKit/605.1.15 (KHTML, like Gecko) Version/14.0.3 Safari/605.1.15",Macintosh,Safari,14.0.3,"OS X",10_14_6
57,1,236.0000000000291,z,html-keyboard-response,99,194313,0.0-99.0,IwAR0DUIiQqMk9Y8a1lkgfzPs2Wlg4kz8TnvUH-hEjQWX7cr-jeu-ayo39hug,"
    <img id = 'img_b1' width = 18% height = 32% style = 'position:absolute;top:10%;left:25%'>
    <img id = 'img_b2' width = 18% height = 32% style = 'position:absolute;top:10%;right:25%'>
    <img id = 'img_b3' width = 18% height = 32% style = 'position:absolute;bottom:10%;left:25%'>
    <img id = 'img_b4' width = 18% height = 32% style = 'position:absolute;bottom:10%;right:25%'>
    <div id = 'cum' style = 'position:absolute;top:5%;right:5%;font-size:calc(18px + 6 * ((100vw - 320px) / 680))'></div>
  ","""","""","""","""","""","""","""","""","""","2021-05-05 15:10:27",117.210.204.220,"Mozilla/5.0 (Macintosh; Intel Mac OS X 10_14_6) AppleWebKit/605.1.15 (KHTML, like Gecko) Version/14.0.3 Safari/605.1.15",Macintosh,Safari,14.0.3,"OS X",10_14_6
57,1,null,null,html-keyboard-response,100,195816,0.0-100.0,IwAR0DUIiQqMk9Y8a1lkgfzPs2Wlg4kz8TnvUH-hEjQWX7cr-jeu-ayo39hug,"
    <img id = 'img_b1' width = 18% height = 32% style = 'position:absolute;top:10%;left:25%'>
    <img id = 'img_b2' width = 18% height = 32% style = 'position:absolute;top:10%;right:25%'>
    <img id = 'img_b3' width = 18% height = 32% style = 'position:absolute;bottom:10%;left:25%'>
    <img id = 'img_b4' width = 18% height = 32% style = 'position:absolute;bottom:10%;right:25%'>
    <div id = 'band_txt'></div>
    <div id = 'cum' style = 'position:absolute;top:5%;right:5%;font-size:calc(18px + 6 * ((100vw - 320px) / 680))'></div>
  ","""","""","""","""","""","""","""","""","""","2021-05-05 15:10:27",117.210.204.220,"Mozilla/5.0 (Macintosh; Intel Mac OS X 10_14_6) AppleWebKit/605.1.15 (KHTML, like Gecko) Version/14.0.3 Safari/605.1.15",Macintosh,Safari,14.0.3,"OS X",10_14_6
57,1,null,null,html-keyboard-response,101,197319,0.0-101.0,IwAR0DUIiQqMk9Y8a1lkgfzPs2Wlg4kz8TnvUH-hEjQWX7cr-jeu-ayo39hug,"<div style=""font-size:60px;"">+</div>","""","""","""","""","""","""","""","""","""","2021-05-05 15:10:27",117.210.204.220,"Mozilla/5.0 (Macintosh; Intel Mac OS X 10_14_6) AppleWebKit/605.1.15 (KHTML, like Gecko) Version/14.0.3 Safari/605.1.15",Macintosh,Safari,14.0.3,"OS X",10_14_6
57,1,674,z,html-keyboard-response,102,197995,0.0-102.0,IwAR0DUIiQqMk9Y8a1lkgfzPs2Wlg4kz8TnvUH-hEjQWX7cr-jeu-ayo39hug,"
    <img id = 'img_b1' width = 18% height = 32% style = 'position:absolute;top:10%;left:25%'>
    <img id = 'img_b2' width = 18% height = 32% style = 'position:absolute;top:10%;right:25%'>
    <img id = 'img_b3' width = 18% height = 32% style = 'position:absolute;bottom:10%;left:25%'>
    <img id = 'img_b4' width = 18% height = 32% style = 'position:absolute;bottom:10%;right:25%'>
    <div id = 'cum' style = 'position:absolute;top:5%;right:5%;font-size:calc(18px + 6 * ((100vw - 320px) / 680))'></div>
  ","""","""","""","""","""","""","""","""","""","2021-05-05 15:10:27",117.210.204.220,"Mozilla/5.0 (Macintosh; Intel Mac OS X 10_14_6) AppleWebKit/605.1.15 (KHTML, like Gecko) Version/14.0.3 Safari/605.1.15",Macintosh,Safari,14.0.3,"OS X",10_14_6
57,1,null,null,html-keyboard-response,103,199497,0.0-103.0,IwAR0DUIiQqMk9Y8a1lkgfzPs2Wlg4kz8TnvUH-hEjQWX7cr-jeu-ayo39hug,"
    <img id = 'img_b1' width = 18% height = 32% style = 'position:absolute;top:10%;left:25%'>
    <img id = 'img_b2' width = 18% height = 32% style = 'position:absolute;top:10%;right:25%'>
    <img id = 'img_b3' width = 18% height = 32% style = 'position:absolute;bottom:10%;left:25%'>
    <img id = 'img_b4' width = 18% height = 32% style = 'position:absolute;bottom:10%;right:25%'>
    <div id = 'band_txt'></div>
    <div id = 'cum' style = 'position:absolute;top:5%;right:5%;font-size:calc(18px + 6 * ((100vw - 320px) / 680))'></div>
  ","""","""","""","""","""","""","""","""","""","2021-05-05 15:10:27",117.210.204.220,"Mozilla/5.0 (Macintosh; Intel Mac OS X 10_14_6) AppleWebKit/605.1.15 (KHTML, like Gecko) Version/14.0.3 Safari/605.1.15",Macintosh,Safari,14.0.3,"OS X",10_14_6
57,1,null,null,html-keyboard-response,104,200750,0.0-104.0,IwAR0DUIiQqMk9Y8a1lkgfzPs2Wlg4kz8TnvUH-hEjQWX7cr-jeu-ayo39hug,"<div style=""font-size:60px;"">+</div>","""","""","""","""","""","""","""","""","""","2021-05-05 15:10:27",117.210.204.220,"Mozilla/5.0 (Macintosh; Intel Mac OS X 10_14_6) AppleWebKit/605.1.15 (KHTML, like Gecko) Version/14.0.3 Safari/605.1.15",Macintosh,Safari,14.0.3,"OS X",10_14_6
57,1,639,z,html-keyboard-response,105,201395,0.0-105.0,IwAR0DUIiQqMk9Y8a1lkgfzPs2Wlg4kz8TnvUH-hEjQWX7cr-jeu-ayo39hug,"
    <img id = 'img_b1' width = 18% height = 32% style = 'position:absolute;top:10%;left:25%'>
    <img id = 'img_b2' width = 18% height = 32% style = 'position:absolute;top:10%;right:25%'>
    <img id = 'img_b3' width = 18% height = 32% style = 'position:absolute;bottom:10%;left:25%'>
    <img id = 'img_b4' width = 18% height = 32% style = 'position:absolute;bottom:10%;right:25%'>
    <div id = 'cum' style = 'position:absolute;top:5%;right:5%;font-size:calc(18px + 6 * ((100vw - 320px) / 680))'></div>
  ","""","""","""","""","""","""","""","""","""","2021-05-05 15:10:27",117.210.204.220,"Mozilla/5.0 (Macintosh; Intel Mac OS X 10_14_6) AppleWebKit/605.1.15 (KHTML, like Gecko) Version/14.0.3 Safari/605.1.15",Macintosh,Safari,14.0.3,"OS X",10_14_6
57,1,null,null,html-keyboard-response,106,202898,0.0-106.0,IwAR0DUIiQqMk9Y8a1lkgfzPs2Wlg4kz8TnvUH-hEjQWX7cr-jeu-ayo39hug,"
    <img id = 'img_b1' width = 18% height = 32% style = 'position:absolute;top:10%;left:25%'>
    <img id = 'img_b2' width = 18% height = 32% style = 'position:absolute;top:10%;right:25%'>
    <img id = 'img_b3' width = 18% height = 32% style = 'position:absolute;bottom:10%;left:25%'>
    <img id = 'img_b4' width = 18% height = 32% style = 'position:absolute;bottom:10%;right:25%'>
    <div id = 'band_txt'></div>
    <div id = 'cum' style = 'position:absolute;top:5%;right:5%;font-size:calc(18px + 6 * ((100vw - 320px) / 680))'></div>
  ","""","""","""","""","""","""","""","""","""","2021-05-05 15:10:27",117.210.204.220,"Mozilla/5.0 (Macintosh; Intel Mac OS X 10_14_6) AppleWebKit/605.1.15 (KHTML, like Gecko) Version/14.0.3 Safari/605.1.15",Macintosh,Safari,14.0.3,"OS X",10_14_6
57,1,null,null,html-keyboard-response,107,203650,0.0-107.0,IwAR0DUIiQqMk9Y8a1lkgfzPs2Wlg4kz8TnvUH-hEjQWX7cr-jeu-ayo39hug,"<div style=""font-size:60px;"">+</div>","""","""","""","""","""","""","""","""","""","2021-05-05 15:10:27",117.210.204.220,"Mozilla/5.0 (Macintosh; Intel Mac OS X 10_14_6) AppleWebKit/605.1.15 (KHTML, like Gecko) Version/14.0.3 Safari/605.1.15",Macintosh,Safari,14.0.3,"OS X",10_14_6
57,1,602,z,html-keyboard-response,108,204253,0.0-108.0,IwAR0DUIiQqMk9Y8a1lkgfzPs2Wlg4kz8TnvUH-hEjQWX7cr-jeu-ayo39hug,"
    <img id = 'img_b1' width = 18% height = 32% style = 'position:absolute;top:10%;left:25%'>
    <img id = 'img_b2' width = 18% height = 32% style = 'position:absolute;top:10%;right:25%'>
    <img id = 'img_b3' width = 18% height = 32% style = 'position:absolute;bottom:10%;left:25%'>
    <img id = 'img_b4' width = 18% height = 32% style = 'position:absolute;bottom:10%;right:25%'>
    <div id = 'cum' style = 'position:absolute;top:5%;right:5%;font-size:calc(18px + 6 * ((100vw - 320px) / 680))'></div>
  ","""","""","""","""","""","""","""","""","""","2021-05-05 15:10:27",117.210.204.220,"Mozilla/5.0 (Macintosh; Intel Mac OS X 10_14_6) AppleWebKit/605.1.15 (KHTML, like Gecko) Version/14.0.3 Safari/605.1.15",Macintosh,Safari,14.0.3,"OS X",10_14_6
57,1,null,null,html-keyboard-response,109,205755,0.0-109.0,IwAR0DUIiQqMk9Y8a1lkgfzPs2Wlg4kz8TnvUH-hEjQWX7cr-jeu-ayo39hug,"
    <img id = 'img_b1' width = 18% height = 32% style = 'position:absolute;top:10%;left:25%'>
    <img id = 'img_b2' width = 18% height = 32% style = 'position:absolute;top:10%;right:25%'>
    <img id = 'img_b3' width = 18% height = 32% style = 'position:absolute;bottom:10%;left:25%'>
    <img id = 'img_b4' width = 18% height = 32% style = 'position:absolute;bottom:10%;right:25%'>
    <div id = 'band_txt'></div>
    <div id = 'cum' style = 'position:absolute;top:5%;right:5%;font-size:calc(18px + 6 * ((100vw - 320px) / 680))'></div>
  ","""","""","""","""","""","""","""","""","""","2021-05-05 15:10:27",117.210.204.220,"Mozilla/5.0 (Macintosh; Intel Mac OS X 10_14_6) AppleWebKit/605.1.15 (KHTML, like Gecko) Version/14.0.3 Safari/605.1.15",Macintosh,Safari,14.0.3,"OS X",10_14_6
57,1,null,null,html-keyboard-response,110,206507,0.0-110.0,IwAR0DUIiQqMk9Y8a1lkgfzPs2Wlg4kz8TnvUH-hEjQWX7cr-jeu-ayo39hug,"<div style=""font-size:60px;"">+</div>","""","""","""","""","""","""","""","""","""","2021-05-05 15:10:27",117.210.204.220,"Mozilla/5.0 (Macintosh; Intel Mac OS X 10_14_6) AppleWebKit/605.1.15 (KHTML, like Gecko) Version/14.0.3 Safari/605.1.15",Macintosh,Safari,14.0.3,"OS X",10_14_6
57,1,183,z,html-keyboard-response,111,206691,0.0-111.0,IwAR0DUIiQqMk9Y8a1lkgfzPs2Wlg4kz8TnvUH-hEjQWX7cr-jeu-ayo39hug,"
    <img id = 'img_b1' width = 18% height = 32% style = 'position:absolute;top:10%;left:25%'>
    <img id = 'img_b2' width = 18% height = 32% style = 'position:absolute;top:10%;right:25%'>
    <img id = 'img_b3' width = 18% height = 32% style = 'position:absolute;bottom:10%;left:25%'>
    <img id = 'img_b4' width = 18% height = 32% style = 'position:absolute;bottom:10%;right:25%'>
    <div id = 'cum' style = 'position:absolute;top:5%;right:5%;font-size:calc(18px + 6 * ((100vw - 320px) / 680))'></div>
  ","""","""","""","""","""","""","""","""","""","2021-05-05 15:10:27",117.210.204.220,"Mozilla/5.0 (Macintosh; Intel Mac OS X 10_14_6) AppleWebKit/605.1.15 (KHTML, like Gecko) Version/14.0.3 Safari/605.1.15",Macintosh,Safari,14.0.3,"OS X",10_14_6
57,1,null,null,html-keyboard-response,112,208194,0.0-112.0,IwAR0DUIiQqMk9Y8a1lkgfzPs2Wlg4kz8TnvUH-hEjQWX7cr-jeu-ayo39hug,"
    <img id = 'img_b1' width = 18% height = 32% style = 'position:absolute;top:10%;left:25%'>
    <img id = 'img_b2' width = 18% height = 32% style = 'position:absolute;top:10%;right:25%'>
    <img id = 'img_b3' width = 18% height = 32% style = 'position:absolute;bottom:10%;left:25%'>
    <img id = 'img_b4' width = 18% height = 32% style = 'position:absolute;bottom:10%;right:25%'>
    <div id = 'band_txt'></div>
    <div id = 'cum' style = 'position:absolute;top:5%;right:5%;font-size:calc(18px + 6 * ((100vw - 320px) / 680))'></div>
  ","""","""","""","""","""","""","""","""","""","2021-05-05 15:10:27",117.210.204.220,"Mozilla/5.0 (Macintosh; Intel Mac OS X 10_14_6) AppleWebKit/605.1.15 (KHTML, like Gecko) Version/14.0.3 Safari/605.1.15",Macintosh,Safari,14.0.3,"OS X",10_14_6
57,1,null,null,html-keyboard-response,113,209699,0.0-113.0,IwAR0DUIiQqMk9Y8a1lkgfzPs2Wlg4kz8TnvUH-hEjQWX7cr-jeu-ayo39hug,"<div style=""font-size:60px;"">+</div>","""","""","""","""","""","""","""","""","""","2021-05-05 15:10:27",117.210.204.220,"Mozilla/5.0 (Macintosh; Intel Mac OS X 10_14_6) AppleWebKit/605.1.15 (KHTML, like Gecko) Version/14.0.3 Safari/605.1.15",Macintosh,Safari,14.0.3,"OS X",10_14_6
57,1,72,z,html-keyboard-response,114,209772,0.0-114.0,IwAR0DUIiQqMk9Y8a1lkgfzPs2Wlg4kz8TnvUH-hEjQWX7cr-jeu-ayo39hug,"
    <img id = 'img_b1' width = 18% height = 32% style = 'position:absolute;top:10%;left:25%'>
    <img id = 'img_b2' width = 18% height = 32% style = 'position:absolute;top:10%;right:25%'>
    <img id = 'img_b3' width = 18% height = 32% style = 'position:absolute;bottom:10%;left:25%'>
    <img id = 'img_b4' width = 18% height = 32% style = 'position:absolute;bottom:10%;right:25%'>
    <div id = 'cum' style = 'position:absolute;top:5%;right:5%;font-size:calc(18px + 6 * ((100vw - 320px) / 680))'></div>
  ","""","""","""","""","""","""","""","""","""","2021-05-05 15:10:27",117.210.204.220,"Mozilla/5.0 (Macintosh; Intel Mac OS X 10_14_6) AppleWebKit/605.1.15 (KHTML, like Gecko) Version/14.0.3 Safari/605.1.15",Macintosh,Safari,14.0.3,"OS X",10_14_6
57,1,null,null,html-keyboard-response,115,211275,0.0-115.0,IwAR0DUIiQqMk9Y8a1lkgfzPs2Wlg4kz8TnvUH-hEjQWX7cr-jeu-ayo39hug,"
    <img id = 'img_b1' width = 18% height = 32% style = 'position:absolute;top:10%;left:25%'>
    <img id = 'img_b2' width = 18% height = 32% style = 'position:absolute;top:10%;right:25%'>
    <img id = 'img_b3' width = 18% height = 32% style = 'position:absolute;bottom:10%;left:25%'>
    <img id = 'img_b4' width = 18% height = 32% style = 'position:absolute;bottom:10%;right:25%'>
    <div id = 'band_txt'></div>
    <div id = 'cum' style = 'position:absolute;top:5%;right:5%;font-size:calc(18px + 6 * ((100vw - 320px) / 680))'></div>
  ","""","""","""","""","""","""","""","""","""","2021-05-05 15:10:27",117.210.204.220,"Mozilla/5.0 (Macintosh; Intel Mac OS X 10_14_6) AppleWebKit/605.1.15 (KHTML, like Gecko) Version/14.0.3 Safari/605.1.15",Macintosh,Safari,14.0.3,"OS X",10_14_6
57,1,null,null,html-keyboard-response,116,212527,0.0-116.0,IwAR0DUIiQqMk9Y8a1lkgfzPs2Wlg4kz8TnvUH-hEjQWX7cr-jeu-ayo39hug,"<div style=""font-size:60px;"">+</div>","""","""","""","""","""","""","""","""","""","2021-05-05 15:10:27",117.210.204.220,"Mozilla/5.0 (Macintosh; Intel Mac OS X 10_14_6) AppleWebKit/605.1.15 (KHTML, like Gecko) Version/14.0.3 Safari/605.1.15",Macintosh,Safari,14.0.3,"OS X",10_14_6
57,1,1499,z,html-keyboard-response,117,214027,0.0-117.0,IwAR0DUIiQqMk9Y8a1lkgfzPs2Wlg4kz8TnvUH-hEjQWX7cr-jeu-ayo39hug,"
    <img id = 'img_b1' width = 18% height = 32% style = 'position:absolute;top:10%;left:25%'>
    <img id = 'img_b2' width = 18% height = 32% style = 'position:absolute;top:10%;right:25%'>
    <img id = 'img_b3' width = 18% height = 32% style = 'position:absolute;bottom:10%;left:25%'>
    <img id = 'img_b4' width = 18% height = 32% style = 'position:absolute;bottom:10%;right:25%'>
    <div id = 'cum' style = 'position:absolute;top:5%;right:5%;font-size:calc(18px + 6 * ((100vw - 320px) / 680))'></div>
  ","""","""","""","""","""","""","""","""","""","2021-05-05 15:10:27",117.210.204.220,"Mozilla/5.0 (Macintosh; Intel Mac OS X 10_14_6) AppleWebKit/605.1.15 (KHTML, like Gecko) Version/14.0.3 Safari/605.1.15",Macintosh,Safari,14.0.3,"OS X",10_14_6
57,1,null,null,html-keyboard-response,118,215529,0.0-118.0,IwAR0DUIiQqMk9Y8a1lkgfzPs2Wlg4kz8TnvUH-hEjQWX7cr-jeu-ayo39hug,"
    <img id = 'img_b1' width = 18% height = 32% style = 'position:absolute;top:10%;left:25%'>
    <img id = 'img_b2' width = 18% height = 32% style = 'position:absolute;top:10%;right:25%'>
    <img id = 'img_b3' width = 18% height = 32% style = 'position:absolute;bottom:10%;left:25%'>
    <img id = 'img_b4' width = 18% height = 32% style = 'position:absolute;bottom:10%;right:25%'>
    <div id = 'band_txt'></div>
    <div id = 'cum' style = 'position:absolute;top:5%;right:5%;font-size:calc(18px + 6 * ((100vw - 320px) / 680))'></div>
  ","""","""","""","""","""","""","""","""","""","2021-05-05 15:10:27",117.210.204.220,"Mozilla/5.0 (Macintosh; Intel Mac OS X 10_14_6) AppleWebKit/605.1.15 (KHTML, like Gecko) Version/14.0.3 Safari/605.1.15",Macintosh,Safari,14.0.3,"OS X",10_14_6
57,1,null,null,html-keyboard-response,119,217035,0.0-119.0,IwAR0DUIiQqMk9Y8a1lkgfzPs2Wlg4kz8TnvUH-hEjQWX7cr-jeu-ayo39hug,"<div style=""font-size:60px;"">+</div>","""","""","""","""","""","""","""","""","""","2021-05-05 15:10:27",117.210.204.220,"Mozilla/5.0 (Macintosh; Intel Mac OS X 10_14_6) AppleWebKit/605.1.15 (KHTML, like Gecko) Version/14.0.3 Safari/605.1.15",Macintosh,Safari,14.0.3,"OS X",10_14_6
57,1,634,z,html-keyboard-response,120,217670,0.0-120.0,IwAR0DUIiQqMk9Y8a1lkgfzPs2Wlg4kz8TnvUH-hEjQWX7cr-jeu-ayo39hug,"
    <img id = 'img_b1' width = 18% height = 32% style = 'position:absolute;top:10%;left:25%'>
    <img id = 'img_b2' width = 18% height = 32% style = 'position:absolute;top:10%;right:25%'>
    <img id = 'img_b3' width = 18% height = 32% style = 'position:absolute;bottom:10%;left:25%'>
    <img id = 'img_b4' width = 18% height = 32% style = 'position:absolute;bottom:10%;right:25%'>
    <div id = 'cum' style = 'position:absolute;top:5%;right:5%;font-size:calc(18px + 6 * ((100vw - 320px) / 680))'></div>
  ","""","""","""","""","""","""","""","""","""","2021-05-05 15:10:27",117.210.204.220,"Mozilla/5.0 (Macintosh; Intel Mac OS X 10_14_6) AppleWebKit/605.1.15 (KHTML, like Gecko) Version/14.0.3 Safari/605.1.15",Macintosh,Safari,14.0.3,"OS X",10_14_6
57,1,null,null,html-keyboard-response,121,219171,0.0-121.0,IwAR0DUIiQqMk9Y8a1lkgfzPs2Wlg4kz8TnvUH-hEjQWX7cr-jeu-ayo39hug,"
    <img id = 'img_b1' width = 18% height = 32% style = 'position:absolute;top:10%;left:25%'>
    <img id = 'img_b2' width = 18% height = 32% style = 'position:absolute;top:10%;right:25%'>
    <img id = 'img_b3' width = 18% height = 32% style = 'position:absolute;bottom:10%;left:25%'>
    <img id = 'img_b4' width = 18% height = 32% style = 'position:absolute;bottom:10%;right:25%'>
    <div id = 'band_txt'></div>
    <div id = 'cum' style = 'position:absolute;top:5%;right:5%;font-size:calc(18px + 6 * ((100vw - 320px) / 680))'></div>
  ","""","""","""","""","""","""","""","""","""","2021-05-05 15:10:27",117.210.204.220,"Mozilla/5.0 (Macintosh; Intel Mac OS X 10_14_6) AppleWebKit/605.1.15 (KHTML, like Gecko) Version/14.0.3 Safari/605.1.15",Macintosh,Safari,14.0.3,"OS X",10_14_6
57,1,null,null,html-keyboard-response,122,220424,0.0-122.0,IwAR0DUIiQqMk9Y8a1lkgfzPs2Wlg4kz8TnvUH-hEjQWX7cr-jeu-ayo39hug,"<div style=""font-size:60px;"">+</div>","""","""","""","""","""","""","""","""","""","2021-05-05 15:10:27",117.210.204.220,"Mozilla/5.0 (Macintosh; Intel Mac OS X 10_14_6) AppleWebKit/605.1.15 (KHTML, like Gecko) Version/14.0.3 Safari/605.1.15",Macintosh,Safari,14.0.3,"OS X",10_14_6
57,1,733,z,html-keyboard-response,123,221158,0.0-123.0,IwAR0DUIiQqMk9Y8a1lkgfzPs2Wlg4kz8TnvUH-hEjQWX7cr-jeu-ayo39hug,"
    <img id = 'img_b1' width = 18% height = 32% style = 'position:absolute;top:10%;left:25%'>
    <img id = 'img_b2' width = 18% height = 32% style = 'position:absolute;top:10%;right:25%'>
    <img id = 'img_b3' width = 18% height = 32% style = 'position:absolute;bottom:10%;left:25%'>
    <img id = 'img_b4' width = 18% height = 32% style = 'position:absolute;bottom:10%;right:25%'>
    <div id = 'cum' style = 'position:absolute;top:5%;right:5%;font-size:calc(18px + 6 * ((100vw - 320px) / 680))'></div>
  ","""","""","""","""","""","""","""","""","""","2021-05-05 15:10:27",117.210.204.220,"Mozilla/5.0 (Macintosh; Intel Mac OS X 10_14_6) AppleWebKit/605.1.15 (KHTML, like Gecko) Version/14.0.3 Safari/605.1.15",Macintosh,Safari,14.0.3,"OS X",10_14_6
57,1,null,null,html-keyboard-response,124,222660,0.0-124.0,IwAR0DUIiQqMk9Y8a1lkgfzPs2Wlg4kz8TnvUH-hEjQWX7cr-jeu-ayo39hug,"
    <img id = 'img_b1' width = 18% height = 32% style = 'position:absolute;top:10%;left:25%'>
    <img id = 'img_b2' width = 18% height = 32% style = 'position:absolute;top:10%;right:25%'>
    <img id = 'img_b3' width = 18% height = 32% style = 'position:absolute;bottom:10%;left:25%'>
    <img id = 'img_b4' width = 18% height = 32% style = 'position:absolute;bottom:10%;right:25%'>
    <div id = 'band_txt'></div>
    <div id = 'cum' style = 'position:absolute;top:5%;right:5%;font-size:calc(18px + 6 * ((100vw - 320px) / 680))'></div>
  ","""","""","""","""","""","""","""","""","""","2021-05-05 15:10:27",117.210.204.220,"Mozilla/5.0 (Macintosh; Intel Mac OS X 10_14_6) AppleWebKit/605.1.15 (KHTML, like Gecko) Version/14.0.3 Safari/605.1.15",Macintosh,Safari,14.0.3,"OS X",10_14_6
57,1,null,null,html-keyboard-response,125,224166,0.0-125.0,IwAR0DUIiQqMk9Y8a1lkgfzPs2Wlg4kz8TnvUH-hEjQWX7cr-jeu-ayo39hug,"<div style=""font-size:60px;"">+</div>","""","""","""","""","""","""","""","""","""","2021-05-05 15:10:27",117.210.204.220,"Mozilla/5.0 (Macintosh; Intel Mac OS X 10_14_6) AppleWebKit/605.1.15 (KHTML, like Gecko) Version/14.0.3 Safari/605.1.15",Macintosh,Safari,14.0.3,"OS X",10_14_6
57,1,925,z,html-keyboard-response,126,225094,0.0-126.0,IwAR0DUIiQqMk9Y8a1lkgfzPs2Wlg4kz8TnvUH-hEjQWX7cr-jeu-ayo39hug,"
    <img id = 'img_b1' width = 18% height = 32% style = 'position:absolute;top:10%;left:25%'>
    <img id = 'img_b2' width = 18% height = 32% style = 'position:absolute;top:10%;right:25%'>
    <img id = 'img_b3' width = 18% height = 32% style = 'position:absolute;bottom:10%;left:25%'>
    <img id = 'img_b4' width = 18% height = 32% style = 'position:absolute;bottom:10%;right:25%'>
    <div id = 'cum' style = 'position:absolute;top:5%;right:5%;font-size:calc(18px + 6 * ((100vw - 320px) / 680))'></div>
  ","""","""","""","""","""","""","""","""","""","2021-05-05 15:10:27",117.210.204.220,"Mozilla/5.0 (Macintosh; Intel Mac OS X 10_14_6) AppleWebKit/605.1.15 (KHTML, like Gecko) Version/14.0.3 Safari/605.1.15",Macintosh,Safari,14.0.3,"OS X",10_14_6
57,1,null,null,html-keyboard-response,127,226596,0.0-127.0,IwAR0DUIiQqMk9Y8a1lkgfzPs2Wlg4kz8TnvUH-hEjQWX7cr-jeu-ayo39hug,"
    <img id = 'img_b1' width = 18% height = 32% style = 'position:absolute;top:10%;left:25%'>
    <img id = 'img_b2' width = 18% height = 32% style = 'position:absolute;top:10%;right:25%'>
    <img id = 'img_b3' width = 18% height = 32% style = 'position:absolute;bottom:10%;left:25%'>
    <img id = 'img_b4' width = 18% height = 32% style = 'position:absolute;bottom:10%;right:25%'>
    <div id = 'band_txt'></div>
    <div id = 'cum' style = 'position:absolute;top:5%;right:5%;font-size:calc(18px + 6 * ((100vw - 320px) / 680))'></div>
  ","""","""","""","""","""","""","""","""","""","2021-05-05 15:10:27",117.210.204.220,"Mozilla/5.0 (Macintosh; Intel Mac OS X 10_14_6) AppleWebKit/605.1.15 (KHTML, like Gecko) Version/14.0.3 Safari/605.1.15",Macintosh,Safari,14.0.3,"OS X",10_14_6
57,1,null,null,html-keyboard-response,128,227598,0.0-128.0,IwAR0DUIiQqMk9Y8a1lkgfzPs2Wlg4kz8TnvUH-hEjQWX7cr-jeu-ayo39hug,"<div style=""font-size:60px;"">+</div>","""","""","""","""","""","""","""","""","""","2021-05-05 15:10:27",117.210.204.220,"Mozilla/5.0 (Macintosh; Intel Mac OS X 10_14_6) AppleWebKit/605.1.15 (KHTML, like Gecko) Version/14.0.3 Safari/605.1.15",Macintosh,Safari,14.0.3,"OS X",10_14_6
57,1,1668.000000000029,z,html-keyboard-response,129,229267,0.0-129.0,IwAR0DUIiQqMk9Y8a1lkgfzPs2Wlg4kz8TnvUH-hEjQWX7cr-jeu-ayo39hug,"
    <img id = 'img_b1' width = 18% height = 32% style = 'position:absolute;top:10%;left:25%'>
    <img id = 'img_b2' width = 18% height = 32% style = 'position:absolute;top:10%;right:25%'>
    <img id = 'img_b3' width = 18% height = 32% style = 'position:absolute;bottom:10%;left:25%'>
    <img id = 'img_b4' width = 18% height = 32% style = 'position:absolute;bottom:10%;right:25%'>
    <div id = 'cum' style = 'position:absolute;top:5%;right:5%;font-size:calc(18px + 6 * ((100vw - 320px) / 680))'></div>
  ","""","""","""","""","""","""","""","""","""","2021-05-05 15:10:27",117.210.204.220,"Mozilla/5.0 (Macintosh; Intel Mac OS X 10_14_6) AppleWebKit/605.1.15 (KHTML, like Gecko) Version/14.0.3 Safari/605.1.15",Macintosh,Safari,14.0.3,"OS X",10_14_6
57,1,null,null,html-keyboard-response,130,230774,0.0-130.0,IwAR0DUIiQqMk9Y8a1lkgfzPs2Wlg4kz8TnvUH-hEjQWX7cr-jeu-ayo39hug,"
    <img id = 'img_b1' width = 18% height = 32% style = 'position:absolute;top:10%;left:25%'>
    <img id = 'img_b2' width = 18% height = 32% style = 'position:absolute;top:10%;right:25%'>
    <img id = 'img_b3' width = 18% height = 32% style = 'position:absolute;bottom:10%;left:25%'>
    <img id = 'img_b4' width = 18% height = 32% style = 'position:absolute;bottom:10%;right:25%'>
    <div id = 'band_txt'></div>
    <div id = 'cum' style = 'position:absolute;top:5%;right:5%;font-size:calc(18px + 6 * ((100vw - 320px) / 680))'></div>
  ","""","""","""","""","""","""","""","""","""","2021-05-05 15:10:27",117.210.204.220,"Mozilla/5.0 (Macintosh; Intel Mac OS X 10_14_6) AppleWebKit/605.1.15 (KHTML, like Gecko) Version/14.0.3 Safari/605.1.15",Macintosh,Safari,14.0.3,"OS X",10_14_6
57,1,null,null,html-keyboard-response,131,231526,0.0-131.0,IwAR0DUIiQqMk9Y8a1lkgfzPs2Wlg4kz8TnvUH-hEjQWX7cr-jeu-ayo39hug,"<div style=""font-size:60px;"">+</div>","""","""","""","""","""","""","""","""","""","2021-05-05 15:10:27",117.210.204.220,"Mozilla/5.0 (Macintosh; Intel Mac OS X 10_14_6) AppleWebKit/605.1.15 (KHTML, like Gecko) Version/14.0.3 Safari/605.1.15",Macintosh,Safari,14.0.3,"OS X",10_14_6
57,1,1068.000000000029,z,html-keyboard-response,132,232594,0.0-132.0,IwAR0DUIiQqMk9Y8a1lkgfzPs2Wlg4kz8TnvUH-hEjQWX7cr-jeu-ayo39hug,"
    <img id = 'img_b1' width = 18% height = 32% style = 'position:absolute;top:10%;left:25%'>
    <img id = 'img_b2' width = 18% height = 32% style = 'position:absolute;top:10%;right:25%'>
    <img id = 'img_b3' width = 18% height = 32% style = 'position:absolute;bottom:10%;left:25%'>
    <img id = 'img_b4' width = 18% height = 32% style = 'position:absolute;bottom:10%;right:25%'>
    <div id = 'cum' style = 'position:absolute;top:5%;right:5%;font-size:calc(18px + 6 * ((100vw - 320px) / 680))'></div>
  ","""","""","""","""","""","""","""","""","""","2021-05-05 15:10:27",117.210.204.220,"Mozilla/5.0 (Macintosh; Intel Mac OS X 10_14_6) AppleWebKit/605.1.15 (KHTML, like Gecko) Version/14.0.3 Safari/605.1.15",Macintosh,Safari,14.0.3,"OS X",10_14_6
57,1,null,null,html-keyboard-response,133,234097,0.0-133.0,IwAR0DUIiQqMk9Y8a1lkgfzPs2Wlg4kz8TnvUH-hEjQWX7cr-jeu-ayo39hug,"
    <img id = 'img_b1' width = 18% height = 32% style = 'position:absolute;top:10%;left:25%'>
    <img id = 'img_b2' width = 18% height = 32% style = 'position:absolute;top:10%;right:25%'>
    <img id = 'img_b3' width = 18% height = 32% style = 'position:absolute;bottom:10%;left:25%'>
    <img id = 'img_b4' width = 18% height = 32% style = 'position:absolute;bottom:10%;right:25%'>
    <div id = 'band_txt'></div>
    <div id = 'cum' style = 'position:absolute;top:5%;right:5%;font-size:calc(18px + 6 * ((100vw - 320px) / 680))'></div>
  ","""","""","""","""","""","""","""","""","""","2021-05-05 15:10:27",117.210.204.220,"Mozilla/5.0 (Macintosh; Intel Mac OS X 10_14_6) AppleWebKit/605.1.15 (KHTML, like Gecko) Version/14.0.3 Safari/605.1.15",Macintosh,Safari,14.0.3,"OS X",10_14_6
57,1,null,null,html-keyboard-response,134,235349,0.0-134.0,IwAR0DUIiQqMk9Y8a1lkgfzPs2Wlg4kz8TnvUH-hEjQWX7cr-jeu-ayo39hug,"<div style=""font-size:60px;"">+</div>","""","""","""","""","""","""","""","""","""","2021-05-05 15:10:27",117.210.204.220,"Mozilla/5.0 (Macintosh; Intel Mac OS X 10_14_6) AppleWebKit/605.1.15 (KHTML, like Gecko) Version/14.0.3 Safari/605.1.15",Macintosh,Safari,14.0.3,"OS X",10_14_6
57,1,746,z,html-keyboard-response,135,236095,0.0-135.0,IwAR0DUIiQqMk9Y8a1lkgfzPs2Wlg4kz8TnvUH-hEjQWX7cr-jeu-ayo39hug,"
    <img id = 'img_b1' width = 18% height = 32% style = 'position:absolute;top:10%;left:25%'>
    <img id = 'img_b2' width = 18% height = 32% style = 'position:absolute;top:10%;right:25%'>
    <img id = 'img_b3' width = 18% height = 32% style = 'position:absolute;bottom:10%;left:25%'>
    <img id = 'img_b4' width = 18% height = 32% style = 'position:absolute;bottom:10%;right:25%'>
    <div id = 'cum' style = 'position:absolute;top:5%;right:5%;font-size:calc(18px + 6 * ((100vw - 320px) / 680))'></div>
  ","""","""","""","""","""","""","""","""","""","2021-05-05 15:10:27",117.210.204.220,"Mozilla/5.0 (Macintosh; Intel Mac OS X 10_14_6) AppleWebKit/605.1.15 (KHTML, like Gecko) Version/14.0.3 Safari/605.1.15",Macintosh,Safari,14.0.3,"OS X",10_14_6
57,1,null,null,html-keyboard-response,136,237602,0.0-136.0,IwAR0DUIiQqMk9Y8a1lkgfzPs2Wlg4kz8TnvUH-hEjQWX7cr-jeu-ayo39hug,"
    <img id = 'img_b1' width = 18% height = 32% style = 'position:absolute;top:10%;left:25%'>
    <img id = 'img_b2' width = 18% height = 32% style = 'position:absolute;top:10%;right:25%'>
    <img id = 'img_b3' width = 18% height = 32% style = 'position:absolute;bottom:10%;left:25%'>
    <img id = 'img_b4' width = 18% height = 32% style = 'position:absolute;bottom:10%;right:25%'>
    <div id = 'band_txt'></div>
