run_id,condition,rt,response,trial_type,trial_index,time_elapsed,internal_node_id,fbclid,stimulus,trend,stable,num,resp_map,success,timeout,failed_images,failed_audio,failed_video,recorded_at,ip,user_agent,device,browser,browser_version,platform,platform_version
63,1,20842.36000000965,"{""age"":""20"",""sex"":""male"",""hand"":""right""}",survey-text,0,20882,0.0-0.0,IwAR16pyVodBZIYU6HmXdJxwZ-ZzbfrFCyK_TIvHb2-yMuU9cV2mq6K5yuG7c,"""","""","""","""","""","""","""","""","""","""","2021-05-05 15:23:50",182.78.211.150,"Mozilla/5.0 (Windows NT 10.0; Win64; x64) AppleWebKit/537.36 (KHTML, like Gecko) Chrome/90.0.4430.93 Safari/537.36",WebKit,Chrome,90.0.4430.93,Windows,10.0
63,1,1443.7700000125915," ",html-keyboard-response,1,22329,0.0-1.0,IwAR16pyVodBZIYU6HmXdJxwZ-ZzbfrFCyK_TIvHb2-yMuU9cV2mq6K5yuG7c,"Hi! Thanks for volunteering for this study. It is part of the project component for the course, CS786A - Computational Cognitive Science, at IIT Kanpur.<br> You will now play a decision-making game lasting for 15-20 minutes. In case of any queries, please write to prathams@iitk.ac.in or call at 9760066853.<br><br>Press any key to continue!",0,0,1,"[3,0,1,2]","""","""","""","""","""","2021-05-05 15:23:50",182.78.211.150,"Mozilla/5.0 (Windows NT 10.0; Win64; x64) AppleWebKit/537.36 (KHTML, like Gecko) Chrome/90.0.4430.93 Safari/537.36",WebKit,Chrome,90.0.4430.93,Windows,10.0
63,1,24137.724999978673," ",html-keyboard-response,2,46468,0.0-2.0,IwAR16pyVodBZIYU6HmXdJxwZ-ZzbfrFCyK_TIvHb2-yMuU9cV2mq6K5yuG7c,"Imagine you are in a casino, and you go to a room with four slot machines. On pulling a machine, it yeilds a reward. At any point, some machines may be better than the others, but the amount they give varies. Your aim is to maximize your cumulative reward by the end of this experiment. <br>Machines are pulled by pressing 'Q', 'P', 'M' or 'Z' on the keyboard. These keys are arranged in the same way on the keyboard as the slot machines are on the screen.<br>Press any button to see an illustration of the trial screen and the keyboard mapping!","""","""","""","""","""","""","""","""","""","2021-05-05 15:23:50",182.78.211.150,"Mozilla/5.0 (Windows NT 10.0; Win64; x64) AppleWebKit/537.36 (KHTML, like Gecko) Chrome/90.0.4430.93 Safari/537.36",WebKit,Chrome,90.0.4430.93,Windows,10.0
63,1,"""","""",preload,3,48530,0.0-3.0,IwAR16pyVodBZIYU6HmXdJxwZ-ZzbfrFCyK_TIvHb2-yMuU9cV2mq6K5yuG7c,"""","""","""","""","""",true,false,[],[],[],"2021-05-05 15:23:50",182.78.211.150,"Mozilla/5.0 (Windows NT 10.0; Win64; x64) AppleWebKit/537.36 (KHTML, like Gecko) Chrome/90.0.4430.93 Safari/537.36",WebKit,Chrome,90.0.4430.93,Windows,10.0
63,1,3148.5549999633804," ",html-keyboard-response,4,51680,0.0-4.0,IwAR16pyVodBZIYU6HmXdJxwZ-ZzbfrFCyK_TIvHb2-yMuU9cV2mq6K5yuG7c,"
    <img src = 'img/b1.png' width = 18% height = 32% style = 'position:absolute;top:10%;left:25%'>
    <img src = 'img/b2.png' width = 18% height = 32% style = 'position:absolute;top:10%;right:25%'>
    <img src = 'img/b3.png' width = 18% height = 32% style = 'position:absolute;bottom:10%;left:25%'>
    <img src = 'img/b4.png' width = 18% height = 32% style = 'position:absolute;bottom:10%;right:25%'>
    <div id = 'cum' style = 'position:absolute;top:5%;right:5%;font-size:calc(18px + 6 * ((100vw - 320px) / 680))'>Total</div>
    <div style = 'position:absolute;top:20%;left:30%;color:black;font-size:calc(18px + 6 * ((100vw - 320px) / 680))'>Q</div>
    <div style = 'position:absolute;top:20%;right:35%;color:black;font-size:calc(18px + 6 * ((100vw - 320px) / 680))'>P</div>
    <div style = 'position:absolute;bottom:26%;right:35%;color:black;font-size:calc(18px + 6 * ((100vw - 320px) / 680))'>M</div>
    <div style = 'position:absolute;bottom:26%;left:30%;color:black;font-size:calc(18px + 6 * ((100vw - 320px) / 680))'>Z</div>
    <div style = 'position:absolute;bottom:5%;left:30%'>Press any button to proceed to the experiment!</div>
  ","""","""","""","""","""","""","""","""","""","2021-05-05 15:23:50",182.78.211.150,"Mozilla/5.0 (Windows NT 10.0; Win64; x64) AppleWebKit/537.36 (KHTML, like Gecko) Chrome/90.0.4430.93 Safari/537.36",WebKit,Chrome,90.0.4430.93,Windows,10.0
63,1,null,null,html-keyboard-response,5,53183,0.0-5.0,IwAR16pyVodBZIYU6HmXdJxwZ-ZzbfrFCyK_TIvHb2-yMuU9cV2mq6K5yuG7c,"<div style=""font-size:60px;"">+</div>","""","""","""","""","""","""","""","""","""","2021-05-05 15:23:50",182.78.211.150,"Mozilla/5.0 (Windows NT 10.0; Win64; x64) AppleWebKit/537.36 (KHTML, like Gecko) Chrome/90.0.4430.93 Safari/537.36",WebKit,Chrome,90.0.4430.93,Windows,10.0
63,1,1669.6949999895878,q,html-keyboard-response,6,54856,0.0-6.0,IwAR16pyVodBZIYU6HmXdJxwZ-ZzbfrFCyK_TIvHb2-yMuU9cV2mq6K5yuG7c,"
    <img id = 'img_b1' width = 18% height = 32% style = 'position:absolute;top:10%;left:25%'>
    <img id = 'img_b2' width = 18% height = 32% style = 'position:absolute;top:10%;right:25%'>
    <img id = 'img_b3' width = 18% height = 32% style = 'position:absolute;bottom:10%;left:25%'>
    <img id = 'img_b4' width = 18% height = 32% style = 'position:absolute;bottom:10%;right:25%'>
    <div id = 'cum' style = 'position:absolute;top:5%;right:5%;font-size:calc(18px + 6 * ((100vw - 320px) / 680))'></div>
  ","""","""","""","""","""","""","""","""","""","2021-05-05 15:23:50",182.78.211.150,"Mozilla/5.0 (Windows NT 10.0; Win64; x64) AppleWebKit/537.36 (KHTML, like Gecko) Chrome/90.0.4430.93 Safari/537.36",WebKit,Chrome,90.0.4430.93,Windows,10.0
63,1,null,null,html-keyboard-response,7,56368,0.0-7.0,IwAR16pyVodBZIYU6HmXdJxwZ-ZzbfrFCyK_TIvHb2-yMuU9cV2mq6K5yuG7c,"
    <img id = 'img_b1' width = 18% height = 32% style = 'position:absolute;top:10%;left:25%'>
    <img id = 'img_b2' width = 18% height = 32% style = 'position:absolute;top:10%;right:25%'>
    <img id = 'img_b3' width = 18% height = 32% style = 'position:absolute;bottom:10%;left:25%'>
    <img id = 'img_b4' width = 18% height = 32% style = 'position:absolute;bottom:10%;right:25%'>
    <div id = 'band_txt'></div>
    <div id = 'cum' style = 'position:absolute;top:5%;right:5%;font-size:calc(18px + 6 * ((100vw - 320px) / 680))'></div>
  ","""","""","""","""","""","""","""","""","""","2021-05-05 15:23:50",182.78.211.150,"Mozilla/5.0 (Windows NT 10.0; Win64; x64) AppleWebKit/537.36 (KHTML, like Gecko) Chrome/90.0.4430.93 Safari/537.36",WebKit,Chrome,90.0.4430.93,Windows,10.0
63,1,null,null,html-keyboard-response,8,57381,0.0-8.0,IwAR16pyVodBZIYU6HmXdJxwZ-ZzbfrFCyK_TIvHb2-yMuU9cV2mq6K5yuG7c,"<div style=""font-size:60px;"">+</div>","""","""","""","""","""","""","""","""","""","2021-05-05 15:23:50",182.78.211.150,"Mozilla/5.0 (Windows NT 10.0; Win64; x64) AppleWebKit/537.36 (KHTML, like Gecko) Chrome/90.0.4430.93 Safari/537.36",WebKit,Chrome,90.0.4430.93,Windows,10.0
63,1,3440.5450000194833,q,html-keyboard-response,9,60823,0.0-9.0,IwAR16pyVodBZIYU6HmXdJxwZ-ZzbfrFCyK_TIvHb2-yMuU9cV2mq6K5yuG7c,"
    <img id = 'img_b1' width = 18% height = 32% style = 'position:absolute;top:10%;left:25%'>
    <img id = 'img_b2' width = 18% height = 32% style = 'position:absolute;top:10%;right:25%'>
    <img id = 'img_b3' width = 18% height = 32% style = 'position:absolute;bottom:10%;left:25%'>
    <img id = 'img_b4' width = 18% height = 32% style = 'position:absolute;bottom:10%;right:25%'>
    <div id = 'cum' style = 'position:absolute;top:5%;right:5%;font-size:calc(18px + 6 * ((100vw - 320px) / 680))'></div>
  ","""","""","""","""","""","""","""","""","""","2021-05-05 15:23:50",182.78.211.150,"Mozilla/5.0 (Windows NT 10.0; Win64; x64) AppleWebKit/537.36 (KHTML, like Gecko) Chrome/90.0.4430.93 Safari/537.36",WebKit,Chrome,90.0.4430.93,Windows,10.0
63,1,null,null,html-keyboard-response,10,62332,0.0-10.0,IwAR16pyVodBZIYU6HmXdJxwZ-ZzbfrFCyK_TIvHb2-yMuU9cV2mq6K5yuG7c,"
    <img id = 'img_b1' width = 18% height = 32% style = 'position:absolute;top:10%;left:25%'>
    <img id = 'img_b2' width = 18% height = 32% style = 'position:absolute;top:10%;right:25%'>
    <img id = 'img_b3' width = 18% height = 32% style = 'position:absolute;bottom:10%;left:25%'>
    <img id = 'img_b4' width = 18% height = 32% style = 'position:absolute;bottom:10%;right:25%'>
    <div id = 'band_txt'></div>
    <div id = 'cum' style = 'position:absolute;top:5%;right:5%;font-size:calc(18px + 6 * ((100vw - 320px) / 680))'></div>
  ","""","""","""","""","""","""","""","""","""","2021-05-05 15:23:50",182.78.211.150,"Mozilla/5.0 (Windows NT 10.0; Win64; x64) AppleWebKit/537.36 (KHTML, like Gecko) Chrome/90.0.4430.93 Safari/537.36",WebKit,Chrome,90.0.4430.93,Windows,10.0
63,1,null,null,html-keyboard-response,11,63595,0.0-11.0,IwAR16pyVodBZIYU6HmXdJxwZ-ZzbfrFCyK_TIvHb2-yMuU9cV2mq6K5yuG7c,"<div style=""font-size:60px;"">+</div>","""","""","""","""","""","""","""","""","""","2021-05-05 15:23:50",182.78.211.150,"Mozilla/5.0 (Windows NT 10.0; Win64; x64) AppleWebKit/537.36 (KHTML, like Gecko) Chrome/90.0.4430.93 Safari/537.36",WebKit,Chrome,90.0.4430.93,Windows,10.0
63,1,428.0199999921024,m,html-keyboard-response,12,64024,0.0-12.0,IwAR16pyVodBZIYU6HmXdJxwZ-ZzbfrFCyK_TIvHb2-yMuU9cV2mq6K5yuG7c,"
    <img id = 'img_b1' width = 18% height = 32% style = 'position:absolute;top:10%;left:25%'>
    <img id = 'img_b2' width = 18% height = 32% style = 'position:absolute;top:10%;right:25%'>
    <img id = 'img_b3' width = 18% height = 32% style = 'position:absolute;bottom:10%;left:25%'>
    <img id = 'img_b4' width = 18% height = 32% style = 'position:absolute;bottom:10%;right:25%'>
    <div id = 'cum' style = 'position:absolute;top:5%;right:5%;font-size:calc(18px + 6 * ((100vw - 320px) / 680))'></div>
  ","""","""","""","""","""","""","""","""","""","2021-05-05 15:23:50",182.78.211.150,"Mozilla/5.0 (Windows NT 10.0; Win64; x64) AppleWebKit/537.36 (KHTML, like Gecko) Chrome/90.0.4430.93 Safari/537.36",WebKit,Chrome,90.0.4430.93,Windows,10.0
63,1,null,null,html-keyboard-response,13,65530,0.0-13.0,IwAR16pyVodBZIYU6HmXdJxwZ-ZzbfrFCyK_TIvHb2-yMuU9cV2mq6K5yuG7c,"
    <img id = 'img_b1' width = 18% height = 32% style = 'position:absolute;top:10%;left:25%'>
    <img id = 'img_b2' width = 18% height = 32% style = 'position:absolute;top:10%;right:25%'>
    <img id = 'img_b3' width = 18% height = 32% style = 'position:absolute;bottom:10%;left:25%'>
    <img id = 'img_b4' width = 18% height = 32% style = 'position:absolute;bottom:10%;right:25%'>
    <div id = 'band_txt'></div>
    <div id = 'cum' style = 'position:absolute;top:5%;right:5%;font-size:calc(18px + 6 * ((100vw - 320px) / 680))'></div>
  ","""","""","""","""","""","""","""","""","""","2021-05-05 15:23:50",182.78.211.150,"Mozilla/5.0 (Windows NT 10.0; Win64; x64) AppleWebKit/537.36 (KHTML, like Gecko) Chrome/90.0.4430.93 Safari/537.36",WebKit,Chrome,90.0.4430.93,Windows,10.0
63,1,null,null,html-keyboard-response,14,67291,0.0-14.0,IwAR16pyVodBZIYU6HmXdJxwZ-ZzbfrFCyK_TIvHb2-yMuU9cV2mq6K5yuG7c,"<div style=""font-size:60px;"">+</div>","""","""","""","""","""","""","""","""","""","2021-05-05 15:23:50",182.78.211.150,"Mozilla/5.0 (Windows NT 10.0; Win64; x64) AppleWebKit/537.36 (KHTML, like Gecko) Chrome/90.0.4430.93 Safari/537.36",WebKit,Chrome,90.0.4430.93,Windows,10.0
63,1,426.8199999933131,z,html-keyboard-response,15,67719,0.0-15.0,IwAR16pyVodBZIYU6HmXdJxwZ-ZzbfrFCyK_TIvHb2-yMuU9cV2mq6K5yuG7c,"
    <img id = 'img_b1' width = 18% height = 32% style = 'position:absolute;top:10%;left:25%'>
    <img id = 'img_b2' width = 18% height = 32% style = 'position:absolute;top:10%;right:25%'>
    <img id = 'img_b3' width = 18% height = 32% style = 'position:absolute;bottom:10%;left:25%'>
    <img id = 'img_b4' width = 18% height = 32% style = 'position:absolute;bottom:10%;right:25%'>
    <div id = 'cum' style = 'position:absolute;top:5%;right:5%;font-size:calc(18px + 6 * ((100vw - 320px) / 680))'></div>
  ","""","""","""","""","""","""","""","""","""","2021-05-05 15:23:50",182.78.211.150,"Mozilla/5.0 (Windows NT 10.0; Win64; x64) AppleWebKit/537.36 (KHTML, like Gecko) Chrome/90.0.4430.93 Safari/537.36",WebKit,Chrome,90.0.4430.93,Windows,10.0
63,1,null,null,html-keyboard-response,16,69231,0.0-16.0,IwAR16pyVodBZIYU6HmXdJxwZ-ZzbfrFCyK_TIvHb2-yMuU9cV2mq6K5yuG7c,"
    <img id = 'img_b1' width = 18% height = 32% style = 'position:absolute;top:10%;left:25%'>
    <img id = 'img_b2' width = 18% height = 32% style = 'position:absolute;top:10%;right:25%'>
    <img id = 'img_b3' width = 18% height = 32% style = 'position:absolute;bottom:10%;left:25%'>
    <img id = 'img_b4' width = 18% height = 32% style = 'position:absolute;bottom:10%;right:25%'>
    <div id = 'band_txt'></div>
    <div id = 'cum' style = 'position:absolute;top:5%;right:5%;font-size:calc(18px + 6 * ((100vw - 320px) / 680))'></div>
  ","""","""","""","""","""","""","""","""","""","2021-05-05 15:23:50",182.78.211.150,"Mozilla/5.0 (Windows NT 10.0; Win64; x64) AppleWebKit/537.36 (KHTML, like Gecko) Chrome/90.0.4430.93 Safari/537.36",WebKit,Chrome,90.0.4430.93,Windows,10.0
63,1,null,null,html-keyboard-response,17,70244,0.0-17.0,IwAR16pyVodBZIYU6HmXdJxwZ-ZzbfrFCyK_TIvHb2-yMuU9cV2mq6K5yuG7c,"<div style=""font-size:60px;"">+</div>","""","""","""","""","""","""","""","""","""","2021-05-05 15:23:50",182.78.211.150,"Mozilla/5.0 (Windows NT 10.0; Win64; x64) AppleWebKit/537.36 (KHTML, like Gecko) Chrome/90.0.4430.93 Safari/537.36",WebKit,Chrome,90.0.4430.93,Windows,10.0
63,1,375.7099999929778,q,html-keyboard-response,18,70620,0.0-18.0,IwAR16pyVodBZIYU6HmXdJxwZ-ZzbfrFCyK_TIvHb2-yMuU9cV2mq6K5yuG7c,"
    <img id = 'img_b1' width = 18% height = 32% style = 'position:absolute;top:10%;left:25%'>
    <img id = 'img_b2' width = 18% height = 32% style = 'position:absolute;top:10%;right:25%'>
    <img id = 'img_b3' width = 18% height = 32% style = 'position:absolute;bottom:10%;left:25%'>
    <img id = 'img_b4' width = 18% height = 32% style = 'position:absolute;bottom:10%;right:25%'>
    <div id = 'cum' style = 'position:absolute;top:5%;right:5%;font-size:calc(18px + 6 * ((100vw - 320px) / 680))'></div>
  ","""","""","""","""","""","""","""","""","""","2021-05-05 15:23:50",182.78.211.150,"Mozilla/5.0 (Windows NT 10.0; Win64; x64) AppleWebKit/537.36 (KHTML, like Gecko) Chrome/90.0.4430.93 Safari/537.36",WebKit,Chrome,90.0.4430.93,Windows,10.0
63,1,null,null,html-keyboard-response,19,72126,0.0-19.0,IwAR16pyVodBZIYU6HmXdJxwZ-ZzbfrFCyK_TIvHb2-yMuU9cV2mq6K5yuG7c,"
    <img id = 'img_b1' width = 18% height = 32% style = 'position:absolute;top:10%;left:25%'>
    <img id = 'img_b2' width = 18% height = 32% style = 'position:absolute;top:10%;right:25%'>
    <img id = 'img_b3' width = 18% height = 32% style = 'position:absolute;bottom:10%;left:25%'>
    <img id = 'img_b4' width = 18% height = 32% style = 'position:absolute;bottom:10%;right:25%'>
    <div id = 'band_txt'></div>
    <div id = 'cum' style = 'position:absolute;top:5%;right:5%;font-size:calc(18px + 6 * ((100vw - 320px) / 680))'></div>
  ","""","""","""","""","""","""","""","""","""","2021-05-05 15:23:50",182.78.211.150,"Mozilla/5.0 (Windows NT 10.0; Win64; x64) AppleWebKit/537.36 (KHTML, like Gecko) Chrome/90.0.4430.93 Safari/537.36",WebKit,Chrome,90.0.4430.93,Windows,10.0
63,1,null,null,html-keyboard-response,20,73636,0.0-20.0,IwAR16pyVodBZIYU6HmXdJxwZ-ZzbfrFCyK_TIvHb2-yMuU9cV2mq6K5yuG7c,"<div style=""font-size:60px;"">+</div>","""","""","""","""","""","""","""","""","""","2021-05-05 15:23:50",182.78.211.150,"Mozilla/5.0 (Windows NT 10.0; Win64; x64) AppleWebKit/537.36 (KHTML, like Gecko) Chrome/90.0.4430.93 Safari/537.36",WebKit,Chrome,90.0.4430.93,Windows,10.0
63,1,501.21499999659136,p,html-keyboard-response,21,74139,0.0-21.0,IwAR16pyVodBZIYU6HmXdJxwZ-ZzbfrFCyK_TIvHb2-yMuU9cV2mq6K5yuG7c,"
    <img id = 'img_b1' width = 18% height = 32% style = 'position:absolute;top:10%;left:25%'>
    <img id = 'img_b2' width = 18% height = 32% style = 'position:absolute;top:10%;right:25%'>
    <img id = 'img_b3' width = 18% height = 32% style = 'position:absolute;bottom:10%;left:25%'>
    <img id = 'img_b4' width = 18% height = 32% style = 'position:absolute;bottom:10%;right:25%'>
    <div id = 'cum' style = 'position:absolute;top:5%;right:5%;font-size:calc(18px + 6 * ((100vw - 320px) / 680))'></div>
  ","""","""","""","""","""","""","""","""","""","2021-05-05 15:23:50",182.78.211.150,"Mozilla/5.0 (Windows NT 10.0; Win64; x64) AppleWebKit/537.36 (KHTML, like Gecko) Chrome/90.0.4430.93 Safari/537.36",WebKit,Chrome,90.0.4430.93,Windows,10.0
63,1,null,null,html-keyboard-response,22,75642,0.0-22.0,IwAR16pyVodBZIYU6HmXdJxwZ-ZzbfrFCyK_TIvHb2-yMuU9cV2mq6K5yuG7c,"
    <img id = 'img_b1' width = 18% height = 32% style = 'position:absolute;top:10%;left:25%'>
    <img id = 'img_b2' width = 18% height = 32% style = 'position:absolute;top:10%;right:25%'>
    <img id = 'img_b3' width = 18% height = 32% style = 'position:absolute;bottom:10%;left:25%'>
    <img id = 'img_b4' width = 18% height = 32% style = 'position:absolute;bottom:10%;right:25%'>
    <div id = 'band_txt'></div>
    <div id = 'cum' style = 'position:absolute;top:5%;right:5%;font-size:calc(18px + 6 * ((100vw - 320px) / 680))'></div>
  ","""","""","""","""","""","""","""","""","""","2021-05-05 15:23:50",182.78.211.150,"Mozilla/5.0 (Windows NT 10.0; Win64; x64) AppleWebKit/537.36 (KHTML, like Gecko) Chrome/90.0.4430.93 Safari/537.36",WebKit,Chrome,90.0.4430.93,Windows,10.0
63,1,null,null,html-keyboard-response,23,76894,0.0-23.0,IwAR16pyVodBZIYU6HmXdJxwZ-ZzbfrFCyK_TIvHb2-yMuU9cV2mq6K5yuG7c,"<div style=""font-size:60px;"">+</div>","""","""","""","""","""","""","""","""","""","2021-05-05 15:23:50",182.78.211.150,"Mozilla/5.0 (Windows NT 10.0; Win64; x64) AppleWebKit/537.36 (KHTML, like Gecko) Chrome/90.0.4430.93 Safari/537.36",WebKit,Chrome,90.0.4430.93,Windows,10.0
63,1,1310.1749999914318,p,html-keyboard-response,24,78204,0.0-24.0,IwAR16pyVodBZIYU6HmXdJxwZ-ZzbfrFCyK_TIvHb2-yMuU9cV2mq6K5yuG7c,"
    <img id = 'img_b1' width = 18% height = 32% style = 'position:absolute;top:10%;left:25%'>
    <img id = 'img_b2' width = 18% height = 32% style = 'position:absolute;top:10%;right:25%'>
    <img id = 'img_b3' width = 18% height = 32% style = 'position:absolute;bottom:10%;left:25%'>
    <img id = 'img_b4' width = 18% height = 32% style = 'position:absolute;bottom:10%;right:25%'>
    <div id = 'cum' style = 'position:absolute;top:5%;right:5%;font-size:calc(18px + 6 * ((100vw - 320px) / 680))'></div>
  ","""","""","""","""","""","""","""","""","""","2021-05-05 15:23:50",182.78.211.150,"Mozilla/5.0 (Windows NT 10.0; Win64; x64) AppleWebKit/537.36 (KHTML, like Gecko) Chrome/90.0.4430.93 Safari/537.36",WebKit,Chrome,90.0.4430.93,Windows,10.0
63,1,null,null,html-keyboard-response,25,79709,0.0-25.0,IwAR16pyVodBZIYU6HmXdJxwZ-ZzbfrFCyK_TIvHb2-yMuU9cV2mq6K5yuG7c,"
    <img id = 'img_b1' width = 18% height = 32% style = 'position:absolute;top:10%;left:25%'>
    <img id = 'img_b2' width = 18% height = 32% style = 'position:absolute;top:10%;right:25%'>
    <img id = 'img_b3' width = 18% height = 32% style = 'position:absolute;bottom:10%;left:25%'>
    <img id = 'img_b4' width = 18% height = 32% style = 'position:absolute;bottom:10%;right:25%'>
    <div id = 'band_txt'></div>
    <div id = 'cum' style = 'position:absolute;top:5%;right:5%;font-size:calc(18px + 6 * ((100vw - 320px) / 680))'></div>
  ","""","""","""","""","""","""","""","""","""","2021-05-05 15:23:50",182.78.211.150,"Mozilla/5.0 (Windows NT 10.0; Win64; x64) AppleWebKit/537.36 (KHTML, like Gecko) Chrome/90.0.4430.93 Safari/537.36",WebKit,Chrome,90.0.4430.93,Windows,10.0
63,1,null,null,html-keyboard-response,26,81219,0.0-26.0,IwAR16pyVodBZIYU6HmXdJxwZ-ZzbfrFCyK_TIvHb2-yMuU9cV2mq6K5yuG7c,"<div style=""font-size:60px;"">+</div>","""","""","""","""","""","""","""","""","""","2021-05-05 15:23:50",182.78.211.150,"Mozilla/5.0 (Windows NT 10.0; Win64; x64) AppleWebKit/537.36 (KHTML, like Gecko) Chrome/90.0.4430.93 Safari/537.36",WebKit,Chrome,90.0.4430.93,Windows,10.0
63,1,548.3600000152364,z,html-keyboard-response,27,81768,0.0-27.0,IwAR16pyVodBZIYU6HmXdJxwZ-ZzbfrFCyK_TIvHb2-yMuU9cV2mq6K5yuG7c,"
    <img id = 'img_b1' width = 18% height = 32% style = 'position:absolute;top:10%;left:25%'>
    <img id = 'img_b2' width = 18% height = 32% style = 'position:absolute;top:10%;right:25%'>
    <img id = 'img_b3' width = 18% height = 32% style = 'position:absolute;bottom:10%;left:25%'>
    <img id = 'img_b4' width = 18% height = 32% style = 'position:absolute;bottom:10%;right:25%'>
    <div id = 'cum' style = 'position:absolute;top:5%;right:5%;font-size:calc(18px + 6 * ((100vw - 320px) / 680))'></div>
  ","""","""","""","""","""","""","""","""","""","2021-05-05 15:23:50",182.78.211.150,"Mozilla/5.0 (Windows NT 10.0; Win64; x64) AppleWebKit/537.36 (KHTML, like Gecko) Chrome/90.0.4430.93 Safari/537.36",WebKit,Chrome,90.0.4430.93,Windows,10.0
63,1,null,null,html-keyboard-response,28,83272,0.0-28.0,IwAR16pyVodBZIYU6HmXdJxwZ-ZzbfrFCyK_TIvHb2-yMuU9cV2mq6K5yuG7c,"
    <img id = 'img_b1' width = 18% height = 32% style = 'position:absolute;top:10%;left:25%'>
    <img id = 'img_b2' width = 18% height = 32% style = 'position:absolute;top:10%;right:25%'>
    <img id = 'img_b3' width = 18% height = 32% style = 'position:absolute;bottom:10%;left:25%'>
    <img id = 'img_b4' width = 18% height = 32% style = 'position:absolute;bottom:10%;right:25%'>
    <div id = 'band_txt'></div>
    <div id = 'cum' style = 'position:absolute;top:5%;right:5%;font-size:calc(18px + 6 * ((100vw - 320px) / 680))'></div>
  ","""","""","""","""","""","""","""","""","""","2021-05-05 15:23:50",182.78.211.150,"Mozilla/5.0 (Windows NT 10.0; Win64; x64) AppleWebKit/537.36 (KHTML, like Gecko) Chrome/90.0.4430.93 Safari/537.36",WebKit,Chrome,90.0.4430.93,Windows,10.0
63,1,null,null,html-keyboard-response,29,84033,0.0-29.0,IwAR16pyVodBZIYU6HmXdJxwZ-ZzbfrFCyK_TIvHb2-yMuU9cV2mq6K5yuG7c,"<div style=""font-size:60px;"">+</div>","""","""","""","""","""","""","""","""","""","2021-05-05 15:23:50",182.78.211.150,"Mozilla/5.0 (Windows NT 10.0; Win64; x64) AppleWebKit/537.36 (KHTML, like Gecko) Chrome/90.0.4430.93 Safari/537.36",WebKit,Chrome,90.0.4430.93,Windows,10.0
63,1,508.19500000216067,p,html-keyboard-response,30,84541,0.0-30.0,IwAR16pyVodBZIYU6HmXdJxwZ-ZzbfrFCyK_TIvHb2-yMuU9cV2mq6K5yuG7c,"
    <img id = 'img_b1' width = 18% height = 32% style = 'position:absolute;top:10%;left:25%'>
    <img id = 'img_b2' width = 18% height = 32% style = 'position:absolute;top:10%;right:25%'>
    <img id = 'img_b3' width = 18% height = 32% style = 'position:absolute;bottom:10%;left:25%'>
    <img id = 'img_b4' width = 18% height = 32% style = 'position:absolute;bottom:10%;right:25%'>
    <div id = 'cum' style = 'position:absolute;top:5%;right:5%;font-size:calc(18px + 6 * ((100vw - 320px) / 680))'></div>
  ","""","""","""","""","""","""","""","""","""","2021-05-05 15:23:50",182.78.211.150,"Mozilla/5.0 (Windows NT 10.0; Win64; x64) AppleWebKit/537.36 (KHTML, like Gecko) Chrome/90.0.4430.93 Safari/537.36",WebKit,Chrome,90.0.4430.93,Windows,10.0
63,1,null,null,html-keyboard-response,31,86043,0.0-31.0,IwAR16pyVodBZIYU6HmXdJxwZ-ZzbfrFCyK_TIvHb2-yMuU9cV2mq6K5yuG7c,"
    <img id = 'img_b1' width = 18% height = 32% style = 'position:absolute;top:10%;left:25%'>
    <img id = 'img_b2' width = 18% height = 32% style = 'position:absolute;top:10%;right:25%'>
    <img id = 'img_b3' width = 18% height = 32% style = 'position:absolute;bottom:10%;left:25%'>
    <img id = 'img_b4' width = 18% height = 32% style = 'position:absolute;bottom:10%;right:25%'>
    <div id = 'band_txt'></div>
    <div id = 'cum' style = 'position:absolute;top:5%;right:5%;font-size:calc(18px + 6 * ((100vw - 320px) / 680))'></div>
  ","""","""","""","""","""","""","""","""","""","2021-05-05 15:23:50",182.78.211.150,"Mozilla/5.0 (Windows NT 10.0; Win64; x64) AppleWebKit/537.36 (KHTML, like Gecko) Chrome/90.0.4430.93 Safari/537.36",WebKit,Chrome,90.0.4430.93,Windows,10.0
63,1,null,null,html-keyboard-response,32,86802,0.0-32.0,IwAR16pyVodBZIYU6HmXdJxwZ-ZzbfrFCyK_TIvHb2-yMuU9cV2mq6K5yuG7c,"<div style=""font-size:60px;"">+</div>","""","""","""","""","""","""","""","""","""","2021-05-05 15:23:50",182.78.211.150,"Mozilla/5.0 (Windows NT 10.0; Win64; x64) AppleWebKit/537.36 (KHTML, like Gecko) Chrome/90.0.4430.93 Safari/537.36",WebKit,Chrome,90.0.4430.93,Windows,10.0
63,1,465.7100000185892,z,html-keyboard-response,33,87268,0.0-33.0,IwAR16pyVodBZIYU6HmXdJxwZ-ZzbfrFCyK_TIvHb2-yMuU9cV2mq6K5yuG7c,"
    <img id = 'img_b1' width = 18% height = 32% style = 'position:absolute;top:10%;left:25%'>
    <img id = 'img_b2' width = 18% height = 32% style = 'position:absolute;top:10%;right:25%'>
    <img id = 'img_b3' width = 18% height = 32% style = 'position:absolute;bottom:10%;left:25%'>
    <img id = 'img_b4' width = 18% height = 32% style = 'position:absolute;bottom:10%;right:25%'>
    <div id = 'cum' style = 'position:absolute;top:5%;right:5%;font-size:calc(18px + 6 * ((100vw - 320px) / 680))'></div>
  ","""","""","""","""","""","""","""","""","""","2021-05-05 15:23:50",182.78.211.150,"Mozilla/5.0 (Windows NT 10.0; Win64; x64) AppleWebKit/537.36 (KHTML, like Gecko) Chrome/90.0.4430.93 Safari/537.36",WebKit,Chrome,90.0.4430.93,Windows,10.0
63,1,null,null,html-keyboard-response,34,88779,0.0-34.0,IwAR16pyVodBZIYU6HmXdJxwZ-ZzbfrFCyK_TIvHb2-yMuU9cV2mq6K5yuG7c,"
    <img id = 'img_b1' width = 18% height = 32% style = 'position:absolute;top:10%;left:25%'>
    <img id = 'img_b2' width = 18% height = 32% style = 'position:absolute;top:10%;right:25%'>
    <img id = 'img_b3' width = 18% height = 32% style = 'position:absolute;bottom:10%;left:25%'>
    <img id = 'img_b4' width = 18% height = 32% style = 'position:absolute;bottom:10%;right:25%'>
    <div id = 'band_txt'></div>
    <div id = 'cum' style = 'position:absolute;top:5%;right:5%;font-size:calc(18px + 6 * ((100vw - 320px) / 680))'></div>
  ","""","""","""","""","""","""","""","""","""","2021-05-05 15:23:50",182.78.211.150,"Mozilla/5.0 (Windows NT 10.0; Win64; x64) AppleWebKit/537.36 (KHTML, like Gecko) Chrome/90.0.4430.93 Safari/537.36",WebKit,Chrome,90.0.4430.93,Windows,10.0
63,1,null,null,html-keyboard-response,35,89541,0.0-35.0,IwAR16pyVodBZIYU6HmXdJxwZ-ZzbfrFCyK_TIvHb2-yMuU9cV2mq6K5yuG7c,"<div style=""font-size:60px;"">+</div>","""","""","""","""","""","""","""","""","""","2021-05-05 15:23:50",182.78.211.150,"Mozilla/5.0 (Windows NT 10.0; Win64; x64) AppleWebKit/537.36 (KHTML, like Gecko) Chrome/90.0.4430.93 Safari/537.36",WebKit,Chrome,90.0.4430.93,Windows,10.0
63,1,327.68000004580244,p,html-keyboard-response,36,89869,0.0-36.0,IwAR16pyVodBZIYU6HmXdJxwZ-ZzbfrFCyK_TIvHb2-yMuU9cV2mq6K5yuG7c,"
    <img id = 'img_b1' width = 18% height = 32% style = 'position:absolute;top:10%;left:25%'>
    <img id = 'img_b2' width = 18% height = 32% style = 'position:absolute;top:10%;right:25%'>
    <img id = 'img_b3' width = 18% height = 32% style = 'position:absolute;bottom:10%;left:25%'>
    <img id = 'img_b4' width = 18% height = 32% style = 'position:absolute;bottom:10%;right:25%'>
    <div id = 'cum' style = 'position:absolute;top:5%;right:5%;font-size:calc(18px + 6 * ((100vw - 320px) / 680))'></div>
  ","""","""","""","""","""","""","""","""","""","2021-05-05 15:23:50",182.78.211.150,"Mozilla/5.0 (Windows NT 10.0; Win64; x64) AppleWebKit/537.36 (KHTML, like Gecko) Chrome/90.0.4430.93 Safari/537.36",WebKit,Chrome,90.0.4430.93,Windows,10.0
63,1,null,null,html-keyboard-response,37,91381,0.0-37.0,IwAR16pyVodBZIYU6HmXdJxwZ-ZzbfrFCyK_TIvHb2-yMuU9cV2mq6K5yuG7c,"
    <img id = 'img_b1' width = 18% height = 32% style = 'position:absolute;top:10%;left:25%'>
    <img id = 'img_b2' width = 18% height = 32% style = 'position:absolute;top:10%;right:25%'>
    <img id = 'img_b3' width = 18% height = 32% style = 'position:absolute;bottom:10%;left:25%'>
    <img id = 'img_b4' width = 18% height = 32% style = 'position:absolute;bottom:10%;right:25%'>
    <div id = 'band_txt'></div>
    <div id = 'cum' style = 'position:absolute;top:5%;right:5%;font-size:calc(18px + 6 * ((100vw - 320px) / 680))'></div>
  ","""","""","""","""","""","""","""","""","""","2021-05-05 15:23:50",182.78.211.150,"Mozilla/5.0 (Windows NT 10.0; Win64; x64) AppleWebKit/537.36 (KHTML, like Gecko) Chrome/90.0.4430.93 Safari/537.36",WebKit,Chrome,90.0.4430.93,Windows,10.0
63,1,null,null,html-keyboard-response,38,92645,0.0-38.0,IwAR16pyVodBZIYU6HmXdJxwZ-ZzbfrFCyK_TIvHb2-yMuU9cV2mq6K5yuG7c,"<div style=""font-size:60px;"">+</div>","""","""","""","""","""","""","""","""","""","2021-05-05 15:23:50",182.78.211.150,"Mozilla/5.0 (Windows NT 10.0; Win64; x64) AppleWebKit/537.36 (KHTML, like Gecko) Chrome/90.0.4430.93 Safari/537.36",WebKit,Chrome,90.0.4430.93,Windows,10.0
63,1,293.1949999765493,z,html-keyboard-response,39,92940,0.0-39.0,IwAR16pyVodBZIYU6HmXdJxwZ-ZzbfrFCyK_TIvHb2-yMuU9cV2mq6K5yuG7c,"
    <img id = 'img_b1' width = 18% height = 32% style = 'position:absolute;top:10%;left:25%'>
    <img id = 'img_b2' width = 18% height = 32% style = 'position:absolute;top:10%;right:25%'>
    <img id = 'img_b3' width = 18% height = 32% style = 'position:absolute;bottom:10%;left:25%'>
    <img id = 'img_b4' width = 18% height = 32% style = 'position:absolute;bottom:10%;right:25%'>
    <div id = 'cum' style = 'position:absolute;top:5%;right:5%;font-size:calc(18px + 6 * ((100vw - 320px) / 680))'></div>
  ","""","""","""","""","""","""","""","""","""","2021-05-05 15:23:50",182.78.211.150,"Mozilla/5.0 (Windows NT 10.0; Win64; x64) AppleWebKit/537.36 (KHTML, like Gecko) Chrome/90.0.4430.93 Safari/537.36",WebKit,Chrome,90.0.4430.93,Windows,10.0
63,1,null,null,html-keyboard-response,40,94447,0.0-40.0,IwAR16pyVodBZIYU6HmXdJxwZ-ZzbfrFCyK_TIvHb2-yMuU9cV2mq6K5yuG7c,"
    <img id = 'img_b1' width = 18% height = 32% style = 'position:absolute;top:10%;left:25%'>
    <img id = 'img_b2' width = 18% height = 32% style = 'position:absolute;top:10%;right:25%'>
    <img id = 'img_b3' width = 18% height = 32% style = 'position:absolute;bottom:10%;left:25%'>
    <img id = 'img_b4' width = 18% height = 32% style = 'position:absolute;bottom:10%;right:25%'>
    <div id = 'band_txt'></div>
    <div id = 'cum' style = 'position:absolute;top:5%;right:5%;font-size:calc(18px + 6 * ((100vw - 320px) / 680))'></div>
  ","""","""","""","""","""","""","""","""","""","2021-05-05 15:23:50",182.78.211.150,"Mozilla/5.0 (Windows NT 10.0; Win64; x64) AppleWebKit/537.36 (KHTML, like Gecko) Chrome/90.0.4430.93 Safari/537.36",WebKit,Chrome,90.0.4430.93,Windows,10.0
63,1,null,null,html-keyboard-response,41,95955,0.0-41.0,IwAR16pyVodBZIYU6HmXdJxwZ-ZzbfrFCyK_TIvHb2-yMuU9cV2mq6K5yuG7c,"<div style=""font-size:60px;"">+</div>","""","""","""","""","""","""","""","""","""","2021-05-05 15:23:50",182.78.211.150,"Mozilla/5.0 (Windows NT 10.0; Win64; x64) AppleWebKit/537.36 (KHTML, like Gecko) Chrome/90.0.4430.93 Safari/537.36",WebKit,Chrome,90.0.4430.93,Windows,10.0
63,1,526.769999996759,m,html-keyboard-response,42,96482,0.0-42.0,IwAR16pyVodBZIYU6HmXdJxwZ-ZzbfrFCyK_TIvHb2-yMuU9cV2mq6K5yuG7c,"
    <img id = 'img_b1' width = 18% height = 32% style = 'position:absolute;top:10%;left:25%'>
    <img id = 'img_b2' width = 18% height = 32% style = 'position:absolute;top:10%;right:25%'>
    <img id = 'img_b3' width = 18% height = 32% style = 'position:absolute;bottom:10%;left:25%'>
    <img id = 'img_b4' width = 18% height = 32% style = 'position:absolute;bottom:10%;right:25%'>
    <div id = 'cum' style = 'position:absolute;top:5%;right:5%;font-size:calc(18px + 6 * ((100vw - 320px) / 680))'></div>
  ","""","""","""","""","""","""","""","""","""","2021-05-05 15:23:50",182.78.211.150,"Mozilla/5.0 (Windows NT 10.0; Win64; x64) AppleWebKit/537.36 (KHTML, like Gecko) Chrome/90.0.4430.93 Safari/537.36",WebKit,Chrome,90.0.4430.93,Windows,10.0
63,1,null,null,html-keyboard-response,43,97992,0.0-43.0,IwAR16pyVodBZIYU6HmXdJxwZ-ZzbfrFCyK_TIvHb2-yMuU9cV2mq6K5yuG7c,"
    <img id = 'img_b1' width = 18% height = 32% style = 'position:absolute;top:10%;left:25%'>
    <img id = 'img_b2' width = 18% height = 32% style = 'position:absolute;top:10%;right:25%'>
    <img id = 'img_b3' width = 18% height = 32% style = 'position:absolute;bottom:10%;left:25%'>
    <img id = 'img_b4' width = 18% height = 32% style = 'position:absolute;bottom:10%;right:25%'>
    <div id = 'band_txt'></div>
    <div id = 'cum' style = 'position:absolute;top:5%;right:5%;font-size:calc(18px + 6 * ((100vw - 320px) / 680))'></div>
  ","""","""","""","""","""","""","""","""","""","2021-05-05 15:23:50",182.78.211.150,"Mozilla/5.0 (Windows NT 10.0; Win64; x64) AppleWebKit/537.36 (KHTML, like Gecko) Chrome/90.0.4430.93 Safari/537.36",WebKit,Chrome,90.0.4430.93,Windows,10.0
63,1,null,null,html-keyboard-response,44,98756,0.0-44.0,IwAR16pyVodBZIYU6HmXdJxwZ-ZzbfrFCyK_TIvHb2-yMuU9cV2mq6K5yuG7c,"<div style=""font-size:60px;"">+</div>","""","""","""","""","""","""","""","""","""","2021-05-05 15:23:50",182.78.211.150,"Mozilla/5.0 (Windows NT 10.0; Win64; x64) AppleWebKit/537.36 (KHTML, like Gecko) Chrome/90.0.4430.93 Safari/537.36",WebKit,Chrome,90.0.4430.93,Windows,10.0
63,1,486.83000000892207,p,html-keyboard-response,45,99246,0.0-45.0,IwAR16pyVodBZIYU6HmXdJxwZ-ZzbfrFCyK_TIvHb2-yMuU9cV2mq6K5yuG7c,"
    <img id = 'img_b1' width = 18% height = 32% style = 'position:absolute;top:10%;left:25%'>
    <img id = 'img_b2' width = 18% height = 32% style = 'position:absolute;top:10%;right:25%'>
    <img id = 'img_b3' width = 18% height = 32% style = 'position:absolute;bottom:10%;left:25%'>
    <img id = 'img_b4' width = 18% height = 32% style = 'position:absolute;bottom:10%;right:25%'>
    <div id = 'cum' style = 'position:absolute;top:5%;right:5%;font-size:calc(18px + 6 * ((100vw - 320px) / 680))'></div>
  ","""","""","""","""","""","""","""","""","""","2021-05-05 15:23:50",182.78.211.150,"Mozilla/5.0 (Windows NT 10.0; Win64; x64) AppleWebKit/537.36 (KHTML, like Gecko) Chrome/90.0.4430.93 Safari/537.36",WebKit,Chrome,90.0.4430.93,Windows,10.0
63,1,null,null,html-keyboard-response,46,100758,0.0-46.0,IwAR16pyVodBZIYU6HmXdJxwZ-ZzbfrFCyK_TIvHb2-yMuU9cV2mq6K5yuG7c,"
    <img id = 'img_b1' width = 18% height = 32% style = 'position:absolute;top:10%;left:25%'>
    <img id = 'img_b2' width = 18% height = 32% style = 'position:absolute;top:10%;right:25%'>
    <img id = 'img_b3' width = 18% height = 32% style = 'position:absolute;bottom:10%;left:25%'>
    <img id = 'img_b4' width = 18% height = 32% style = 'position:absolute;bottom:10%;right:25%'>
    <div id = 'band_txt'></div>
    <div id = 'cum' style = 'position:absolute;top:5%;right:5%;font-size:calc(18px + 6 * ((100vw - 320px) / 680))'></div>
  ","""","""","""","""","""","""","""","""","""","2021-05-05 15:23:50",182.78.211.150,"Mozilla/5.0 (Windows NT 10.0; Win64; x64) AppleWebKit/537.36 (KHTML, like Gecko) Chrome/90.0.4430.93 Safari/537.36",WebKit,Chrome,90.0.4430.93,Windows,10.0
63,1,null,null,html-keyboard-response,47,102265,0.0-47.0,IwAR16pyVodBZIYU6HmXdJxwZ-ZzbfrFCyK_TIvHb2-yMuU9cV2mq6K5yuG7c,"<div style=""font-size:60px;"">+</div>","""","""","""","""","""","""","""","""","""","2021-05-05 15:23:50",182.78.211.150,"Mozilla/5.0 (Windows NT 10.0; Win64; x64) AppleWebKit/537.36 (KHTML, like Gecko) Chrome/90.0.4430.93 Safari/537.36",WebKit,Chrome,90.0.4430.93,Windows,10.0
63,1,311.52500002644956,z,html-keyboard-response,48,102577,0.0-48.0,IwAR16pyVodBZIYU6HmXdJxwZ-ZzbfrFCyK_TIvHb2-yMuU9cV2mq6K5yuG7c,"
    <img id = 'img_b1' width = 18% height = 32% style = 'position:absolute;top:10%;left:25%'>
    <img id = 'img_b2' width = 18% height = 32% style = 'position:absolute;top:10%;right:25%'>
    <img id = 'img_b3' width = 18% height = 32% style = 'position:absolute;bottom:10%;left:25%'>
    <img id = 'img_b4' width = 18% height = 32% style = 'position:absolute;bottom:10%;right:25%'>
    <div id = 'cum' style = 'position:absolute;top:5%;right:5%;font-size:calc(18px + 6 * ((100vw - 320px) / 680))'></div>
  ","""","""","""","""","""","""","""","""","""","2021-05-05 15:23:50",182.78.211.150,"Mozilla/5.0 (Windows NT 10.0; Win64; x64) AppleWebKit/537.36 (KHTML, like Gecko) Chrome/90.0.4430.93 Safari/537.36",WebKit,Chrome,90.0.4430.93,Windows,10.0
63,1,null,null,html-keyboard-response,49,104082,0.0-49.0,IwAR16pyVodBZIYU6HmXdJxwZ-ZzbfrFCyK_TIvHb2-yMuU9cV2mq6K5yuG7c,"
    <img id = 'img_b1' width = 18% height = 32% style = 'position:absolute;top:10%;left:25%'>
    <img id = 'img_b2' width = 18% height = 32% style = 'position:absolute;top:10%;right:25%'>
    <img id = 'img_b3' width = 18% height = 32% style = 'position:absolute;bottom:10%;left:25%'>
    <img id = 'img_b4' width = 18% height = 32% style = 'position:absolute;bottom:10%;right:25%'>
    <div id = 'band_txt'></div>
    <div id = 'cum' style = 'position:absolute;top:5%;right:5%;font-size:calc(18px + 6 * ((100vw - 320px) / 680))'></div>
  ","""","""","""","""","""","""","""","""","""","2021-05-05 15:23:50",182.78.211.150,"Mozilla/5.0 (Windows NT 10.0; Win64; x64) AppleWebKit/537.36 (KHTML, like Gecko) Chrome/90.0.4430.93 Safari/537.36",WebKit,Chrome,90.0.4430.93,Windows,10.0
63,1,null,null,html-keyboard-response,50,105839,0.0-50.0,IwAR16pyVodBZIYU6HmXdJxwZ-ZzbfrFCyK_TIvHb2-yMuU9cV2mq6K5yuG7c,"<div style=""font-size:60px;"">+</div>","""","""","""","""","""","""","""","""","""","2021-05-05 15:23:50",182.78.211.150,"Mozilla/5.0 (Windows NT 10.0; Win64; x64) AppleWebKit/537.36 (KHTML, like Gecko) Chrome/90.0.4430.93 Safari/537.36",WebKit,Chrome,90.0.4430.93,Windows,10.0
63,1,364.2450000043027,p,html-keyboard-response,51,106205,0.0-51.0,IwAR16pyVodBZIYU6HmXdJxwZ-ZzbfrFCyK_TIvHb2-yMuU9cV2mq6K5yuG7c,"
    <img id = 'img_b1' width = 18% height = 32% style = 'position:absolute;top:10%;left:25%'>
    <img id = 'img_b2' width = 18% height = 32% style = 'position:absolute;top:10%;right:25%'>
    <img id = 'img_b3' width = 18% height = 32% style = 'position:absolute;bottom:10%;left:25%'>
    <img id = 'img_b4' width = 18% height = 32% style = 'position:absolute;bottom:10%;right:25%'>
    <div id = 'cum' style = 'position:absolute;top:5%;right:5%;font-size:calc(18px + 6 * ((100vw - 320px) / 680))'></div>
  ","""","""","""","""","""","""","""","""","""","2021-05-05 15:23:50",182.78.211.150,"Mozilla/5.0 (Windows NT 10.0; Win64; x64) AppleWebKit/537.36 (KHTML, like Gecko) Chrome/90.0.4430.93 Safari/537.36",WebKit,Chrome,90.0.4430.93,Windows,10.0
63,1,null,null,html-keyboard-response,52,107716,0.0-52.0,IwAR16pyVodBZIYU6HmXdJxwZ-ZzbfrFCyK_TIvHb2-yMuU9cV2mq6K5yuG7c,"
    <img id = 'img_b1' width = 18% height = 32% style = 'position:absolute;top:10%;left:25%'>
    <img id = 'img_b2' width = 18% height = 32% style = 'position:absolute;top:10%;right:25%'>
    <img id = 'img_b3' width = 18% height = 32% style = 'position:absolute;bottom:10%;left:25%'>
    <img id = 'img_b4' width = 18% height = 32% style = 'position:absolute;bottom:10%;right:25%'>
    <div id = 'band_txt'></div>
    <div id = 'cum' style = 'position:absolute;top:5%;right:5%;font-size:calc(18px + 6 * ((100vw - 320px) / 680))'></div>
  ","""","""","""","""","""","""","""","""","""","2021-05-05 15:23:50",182.78.211.150,"Mozilla/5.0 (Windows NT 10.0; Win64; x64) AppleWebKit/537.36 (KHTML, like Gecko) Chrome/90.0.4430.93 Safari/537.36",WebKit,Chrome,90.0.4430.93,Windows,10.0
63,1,null,null,html-keyboard-response,53,108724,0.0-53.0,IwAR16pyVodBZIYU6HmXdJxwZ-ZzbfrFCyK_TIvHb2-yMuU9cV2mq6K5yuG7c,"<div style=""font-size:60px;"">+</div>","""","""","""","""","""","""","""","""","""","2021-05-05 15:23:50",182.78.211.150,"Mozilla/5.0 (Windows NT 10.0; Win64; x64) AppleWebKit/537.36 (KHTML, like Gecko) Chrome/90.0.4430.93 Safari/537.36",WebKit,Chrome,90.0.4430.93,Windows,10.0
63,1,284.31999997701496,z,html-keyboard-response,54,109009,0.0-54.0,IwAR16pyVodBZIYU6HmXdJxwZ-ZzbfrFCyK_TIvHb2-yMuU9cV2mq6K5yuG7c,"
    <img id = 'img_b1' width = 18% height = 32% style = 'position:absolute;top:10%;left:25%'>
    <img id = 'img_b2' width = 18% height = 32% style = 'position:absolute;top:10%;right:25%'>
    <img id = 'img_b3' width = 18% height = 32% style = 'position:absolute;bottom:10%;left:25%'>
    <img id = 'img_b4' width = 18% height = 32% style = 'position:absolute;bottom:10%;right:25%'>
    <div id = 'cum' style = 'position:absolute;top:5%;right:5%;font-size:calc(18px + 6 * ((100vw - 320px) / 680))'></div>
  ","""","""","""","""","""","""","""","""","""","2021-05-05 15:23:50",182.78.211.150,"Mozilla/5.0 (Windows NT 10.0; Win64; x64) AppleWebKit/537.36 (KHTML, like Gecko) Chrome/90.0.4430.93 Safari/537.36",WebKit,Chrome,90.0.4430.93,Windows,10.0
63,1,null,null,html-keyboard-response,55,110525,0.0-55.0,IwAR16pyVodBZIYU6HmXdJxwZ-ZzbfrFCyK_TIvHb2-yMuU9cV2mq6K5yuG7c,"
    <img id = 'img_b1' width = 18% height = 32% style = 'position:absolute;top:10%;left:25%'>
    <img id = 'img_b2' width = 18% height = 32% style = 'position:absolute;top:10%;right:25%'>
    <img id = 'img_b3' width = 18% height = 32% style = 'position:absolute;bottom:10%;left:25%'>
    <img id = 'img_b4' width = 18% height = 32% style = 'position:absolute;bottom:10%;right:25%'>
    <div id = 'band_txt'></div>
    <div id = 'cum' style = 'position:absolute;top:5%;right:5%;font-size:calc(18px + 6 * ((100vw - 320px) / 680))'></div>
  ","""","""","""","""","""","""","""","""","""","2021-05-05 15:23:50",182.78.211.150,"Mozilla/5.0 (Windows NT 10.0; Win64; x64) AppleWebKit/537.36 (KHTML, like Gecko) Chrome/90.0.4430.93 Safari/537.36",WebKit,Chrome,90.0.4430.93,Windows,10.0
63,1,null,null,html-keyboard-response,56,112281,0.0-56.0,IwAR16pyVodBZIYU6HmXdJxwZ-ZzbfrFCyK_TIvHb2-yMuU9cV2mq6K5yuG7c,"<div style=""font-size:60px;"">+</div>","""","""","""","""","""","""","""","""","""","2021-05-05 15:23:50",182.78.211.150,"Mozilla/5.0 (Windows NT 10.0; Win64; x64) AppleWebKit/537.36 (KHTML, like Gecko) Chrome/90.0.4430.93 Safari/537.36",WebKit,Chrome,90.0.4430.93,Windows,10.0
63,1,412.34999999869615,z,html-keyboard-response,57,112695,0.0-57.0,IwAR16pyVodBZIYU6HmXdJxwZ-ZzbfrFCyK_TIvHb2-yMuU9cV2mq6K5yuG7c,"
    <img id = 'img_b1' width = 18% height = 32% style = 'position:absolute;top:10%;left:25%'>
    <img id = 'img_b2' width = 18% height = 32% style = 'position:absolute;top:10%;right:25%'>
    <img id = 'img_b3' width = 18% height = 32% style = 'position:absolute;bottom:10%;left:25%'>
    <img id = 'img_b4' width = 18% height = 32% style = 'position:absolute;bottom:10%;right:25%'>
    <div id = 'cum' style = 'position:absolute;top:5%;right:5%;font-size:calc(18px + 6 * ((100vw - 320px) / 680))'></div>
  ","""","""","""","""","""","""","""","""","""","2021-05-05 15:23:50",182.78.211.150,"Mozilla/5.0 (Windows NT 10.0; Win64; x64) AppleWebKit/537.36 (KHTML, like Gecko) Chrome/90.0.4430.93 Safari/537.36",WebKit,Chrome,90.0.4430.93,Windows,10.0
63,1,null,null,html-keyboard-response,58,114206,0.0-58.0,IwAR16pyVodBZIYU6HmXdJxwZ-ZzbfrFCyK_TIvHb2-yMuU9cV2mq6K5yuG7c,"
    <img id = 'img_b1' width = 18% height = 32% style = 'position:absolute;top:10%;left:25%'>
    <img id = 'img_b2' width = 18% height = 32% style = 'position:absolute;top:10%;right:25%'>
    <img id = 'img_b3' width = 18% height = 32% style = 'position:absolute;bottom:10%;left:25%'>
    <img id = 'img_b4' width = 18% height = 32% style = 'position:absolute;bottom:10%;right:25%'>
    <div id = 'band_txt'></div>
    <div id = 'cum' style = 'position:absolute;top:5%;right:5%;font-size:calc(18px + 6 * ((100vw - 320px) / 680))'></div>
  ","""","""","""","""","""","""","""","""","""","2021-05-05 15:23:50",182.78.211.150,"Mozilla/5.0 (Windows NT 10.0; Win64; x64) AppleWebKit/537.36 (KHTML, like Gecko) Chrome/90.0.4430.93 Safari/537.36",WebKit,Chrome,90.0.4430.93,Windows,10.0
63,1,null,null,html-keyboard-response,59,115708,0.0-59.0,IwAR16pyVodBZIYU6HmXdJxwZ-ZzbfrFCyK_TIvHb2-yMuU9cV2mq6K5yuG7c,"<div style=""font-size:60px;"">+</div>","""","""","""","""","""","""","""","""","""","2021-05-05 15:23:50",182.78.211.150,"Mozilla/5.0 (Windows NT 10.0; Win64; x64) AppleWebKit/537.36 (KHTML, like Gecko) Chrome/90.0.4430.93 Safari/537.36",WebKit,Chrome,90.0.4430.93,Windows,10.0
63,1,395.9150000009686,q,html-keyboard-response,60,116104,0.0-60.0,IwAR16pyVodBZIYU6HmXdJxwZ-ZzbfrFCyK_TIvHb2-yMuU9cV2mq6K5yuG7c,"
    <img id = 'img_b1' width = 18% height = 32% style = 'position:absolute;top:10%;left:25%'>
    <img id = 'img_b2' width = 18% height = 32% style = 'position:absolute;top:10%;right:25%'>
    <img id = 'img_b3' width = 18% height = 32% style = 'position:absolute;bottom:10%;left:25%'>
    <img id = 'img_b4' width = 18% height = 32% style = 'position:absolute;bottom:10%;right:25%'>
    <div id = 'cum' style = 'position:absolute;top:5%;right:5%;font-size:calc(18px + 6 * ((100vw - 320px) / 680))'></div>
  ","""","""","""","""","""","""","""","""","""","2021-05-05 15:23:50",182.78.211.150,"Mozilla/5.0 (Windows NT 10.0; Win64; x64) AppleWebKit/537.36 (KHTML, like Gecko) Chrome/90.0.4430.93 Safari/537.36",WebKit,Chrome,90.0.4430.93,Windows,10.0
63,1,null,null,html-keyboard-response,61,117619,0.0-61.0,IwAR16pyVodBZIYU6HmXdJxwZ-ZzbfrFCyK_TIvHb2-yMuU9cV2mq6K5yuG7c,"
    <img id = 'img_b1' width = 18% height = 32% style = 'position:absolute;top:10%;left:25%'>
    <img id = 'img_b2' width = 18% height = 32% style = 'position:absolute;top:10%;right:25%'>
    <img id = 'img_b3' width = 18% height = 32% style = 'position:absolute;bottom:10%;left:25%'>
    <img id = 'img_b4' width = 18% height = 32% style = 'position:absolute;bottom:10%;right:25%'>
    <div id = 'band_txt'></div>
    <div id = 'cum' style = 'position:absolute;top:5%;right:5%;font-size:calc(18px + 6 * ((100vw - 320px) / 680))'></div>
  ","""","""","""","""","""","""","""","""","""","2021-05-05 15:23:50",182.78.211.150,"Mozilla/5.0 (Windows NT 10.0; Win64; x64) AppleWebKit/537.36 (KHTML, like Gecko) Chrome/90.0.4430.93 Safari/537.36",WebKit,Chrome,90.0.4430.93,Windows,10.0
63,1,null,null,html-keyboard-response,62,119124,0.0-62.0,IwAR16pyVodBZIYU6HmXdJxwZ-ZzbfrFCyK_TIvHb2-yMuU9cV2mq6K5yuG7c,"<div style=""font-size:60px;"">+</div>","""","""","""","""","""","""","""","""","""","2021-05-05 15:23:50",182.78.211.150,"Mozilla/5.0 (Windows NT 10.0; Win64; x64) AppleWebKit/537.36 (KHTML, like Gecko) Chrome/90.0.4430.93 Safari/537.36",WebKit,Chrome,90.0.4430.93,Windows,10.0
63,1,332.93499995488673,p,html-keyboard-response,63,119458,0.0-63.0,IwAR16pyVodBZIYU6HmXdJxwZ-ZzbfrFCyK_TIvHb2-yMuU9cV2mq6K5yuG7c,"
    <img id = 'img_b1' width = 18% height = 32% style = 'position:absolute;top:10%;left:25%'>
    <img id = 'img_b2' width = 18% height = 32% style = 'position:absolute;top:10%;right:25%'>
    <img id = 'img_b3' width = 18% height = 32% style = 'position:absolute;bottom:10%;left:25%'>
    <img id = 'img_b4' width = 18% height = 32% style = 'position:absolute;bottom:10%;right:25%'>
    <div id = 'cum' style = 'position:absolute;top:5%;right:5%;font-size:calc(18px + 6 * ((100vw - 320px) / 680))'></div>
  ","""","""","""","""","""","""","""","""","""","2021-05-05 15:23:50",182.78.211.150,"Mozilla/5.0 (Windows NT 10.0; Win64; x64) AppleWebKit/537.36 (KHTML, like Gecko) Chrome/90.0.4430.93 Safari/537.36",WebKit,Chrome,90.0.4430.93,Windows,10.0
63,1,null,null,html-keyboard-response,64,120960,0.0-64.0,IwAR16pyVodBZIYU6HmXdJxwZ-ZzbfrFCyK_TIvHb2-yMuU9cV2mq6K5yuG7c,"
    <img id = 'img_b1' width = 18% height = 32% style = 'position:absolute;top:10%;left:25%'>
    <img id = 'img_b2' width = 18% height = 32% style = 'position:absolute;top:10%;right:25%'>
    <img id = 'img_b3' width = 18% height = 32% style = 'position:absolute;bottom:10%;left:25%'>
    <img id = 'img_b4' width = 18% height = 32% style = 'position:absolute;bottom:10%;right:25%'>
    <div id = 'band_txt'></div>
    <div id = 'cum' style = 'position:absolute;top:5%;right:5%;font-size:calc(18px + 6 * ((100vw - 320px) / 680))'></div>
  ","""","""","""","""","""","""","""","""","""","2021-05-05 15:23:50",182.78.211.150,"Mozilla/5.0 (Windows NT 10.0; Win64; x64) AppleWebKit/537.36 (KHTML, like Gecko) Chrome/90.0.4430.93 Safari/537.36",WebKit,Chrome,90.0.4430.93,Windows,10.0
63,1,null,null,html-keyboard-response,65,122217,0.0-65.0,IwAR16pyVodBZIYU6HmXdJxwZ-ZzbfrFCyK_TIvHb2-yMuU9cV2mq6K5yuG7c,"<div style=""font-size:60px;"">+</div>","""","""","""","""","""","""","""","""","""","2021-05-05 15:23:50",182.78.211.150,"Mozilla/5.0 (Windows NT 10.0; Win64; x64) AppleWebKit/537.36 (KHTML, like Gecko) Chrome/90.0.4430.93 Safari/537.36",WebKit,Chrome,90.0.4430.93,Windows,10.0
63,1,326.0899999877438,z,html-keyboard-response,66,122544,0.0-66.0,IwAR16pyVodBZIYU6HmXdJxwZ-ZzbfrFCyK_TIvHb2-yMuU9cV2mq6K5yuG7c,"
    <img id = 'img_b1' width = 18% height = 32% style = 'position:absolute;top:10%;left:25%'>
    <img id = 'img_b2' width = 18% height = 32% style = 'position:absolute;top:10%;right:25%'>
    <img id = 'img_b3' width = 18% height = 32% style = 'position:absolute;bottom:10%;left:25%'>
    <img id = 'img_b4' width = 18% height = 32% style = 'position:absolute;bottom:10%;right:25%'>
    <div id = 'cum' style = 'position:absolute;top:5%;right:5%;font-size:calc(18px + 6 * ((100vw - 320px) / 680))'></div>
  ","""","""","""","""","""","""","""","""","""","2021-05-05 15:23:50",182.78.211.150,"Mozilla/5.0 (Windows NT 10.0; Win64; x64) AppleWebKit/537.36 (KHTML, like Gecko) Chrome/90.0.4430.93 Safari/537.36",WebKit,Chrome,90.0.4430.93,Windows,10.0
63,1,null,null,html-keyboard-response,67,124051,0.0-67.0,IwAR16pyVodBZIYU6HmXdJxwZ-ZzbfrFCyK_TIvHb2-yMuU9cV2mq6K5yuG7c,"
    <img id = 'img_b1' width = 18% height = 32% style = 'position:absolute;top:10%;left:25%'>
    <img id = 'img_b2' width = 18% height = 32% style = 'position:absolute;top:10%;right:25%'>
    <img id = 'img_b3' width = 18% height = 32% style = 'position:absolute;bottom:10%;left:25%'>
    <img id = 'img_b4' width = 18% height = 32% style = 'position:absolute;bottom:10%;right:25%'>
    <div id = 'band_txt'></div>
    <div id = 'cum' style = 'position:absolute;top:5%;right:5%;font-size:calc(18px + 6 * ((100vw - 320px) / 680))'></div>
  ","""","""","""","""","""","""","""","""","""","2021-05-05 15:23:50",182.78.211.150,"Mozilla/5.0 (Windows NT 10.0; Win64; x64) AppleWebKit/537.36 (KHTML, like Gecko) Chrome/90.0.4430.93 Safari/537.36",WebKit,Chrome,90.0.4430.93,Windows,10.0
63,1,null,null,html-keyboard-response,68,125309,0.0-68.0,IwAR16pyVodBZIYU6HmXdJxwZ-ZzbfrFCyK_TIvHb2-yMuU9cV2mq6K5yuG7c,"<div style=""font-size:60px;"">+</div>","""","""","""","""","""","""","""","""","""","2021-05-05 15:23:50",182.78.211.150,"Mozilla/5.0 (Windows NT 10.0; Win64; x64) AppleWebKit/537.36 (KHTML, like Gecko) Chrome/90.0.4430.93 Safari/537.36",WebKit,Chrome,90.0.4430.93,Windows,10.0
63,1,444.98999998904765,p,html-keyboard-response,69,125755,0.0-69.0,IwAR16pyVodBZIYU6HmXdJxwZ-ZzbfrFCyK_TIvHb2-yMuU9cV2mq6K5yuG7c,"
    <img id = 'img_b1' width = 18% height = 32% style = 'position:absolute;top:10%;left:25%'>
    <img id = 'img_b2' width = 18% height = 32% style = 'position:absolute;top:10%;right:25%'>
    <img id = 'img_b3' width = 18% height = 32% style = 'position:absolute;bottom:10%;left:25%'>
    <img id = 'img_b4' width = 18% height = 32% style = 'position:absolute;bottom:10%;right:25%'>
    <div id = 'cum' style = 'position:absolute;top:5%;right:5%;font-size:calc(18px + 6 * ((100vw - 320px) / 680))'></div>
  ","""","""","""","""","""","""","""","""","""","2021-05-05 15:23:50",182.78.211.150,"Mozilla/5.0 (Windows NT 10.0; Win64; x64) AppleWebKit/537.36 (KHTML, like Gecko) Chrome/90.0.4430.93 Safari/537.36",WebKit,Chrome,90.0.4430.93,Windows,10.0
63,1,null,null,html-keyboard-response,70,127270,0.0-70.0,IwAR16pyVodBZIYU6HmXdJxwZ-ZzbfrFCyK_TIvHb2-yMuU9cV2mq6K5yuG7c,"
    <img id = 'img_b1' width = 18% height = 32% style = 'position:absolute;top:10%;left:25%'>
    <img id = 'img_b2' width = 18% height = 32% style = 'position:absolute;top:10%;right:25%'>
    <img id = 'img_b3' width = 18% height = 32% style = 'position:absolute;bottom:10%;left:25%'>
    <img id = 'img_b4' width = 18% height = 32% style = 'position:absolute;bottom:10%;right:25%'>
    <div id = 'band_txt'></div>
    <div id = 'cum' style = 'position:absolute;top:5%;right:5%;font-size:calc(18px + 6 * ((100vw - 320px) / 680))'></div>
  ","""","""","""","""","""","""","""","""","""","2021-05-05 15:23:50",182.78.211.150,"Mozilla/5.0 (Windows NT 10.0; Win64; x64) AppleWebKit/537.36 (KHTML, like Gecko) Chrome/90.0.4430.93 Safari/537.36",WebKit,Chrome,90.0.4430.93,Windows,10.0
63,1,null,null,html-keyboard-response,71,128035,0.0-71.0,IwAR16pyVodBZIYU6HmXdJxwZ-ZzbfrFCyK_TIvHb2-yMuU9cV2mq6K5yuG7c,"<div style=""font-size:60px;"">+</div>","""","""","""","""","""","""","""","""","""","2021-05-05 15:23:50",182.78.211.150,"Mozilla/5.0 (Windows NT 10.0; Win64; x64) AppleWebKit/537.36 (KHTML, like Gecko) Chrome/90.0.4430.93 Safari/537.36",WebKit,Chrome,90.0.4430.93,Windows,10.0
63,1,617.5050000310875,z,html-keyboard-response,72,128653,0.0-72.0,IwAR16pyVodBZIYU6HmXdJxwZ-ZzbfrFCyK_TIvHb2-yMuU9cV2mq6K5yuG7c,"
    <img id = 'img_b1' width = 18% height = 32% style = 'position:absolute;top:10%;left:25%'>
    <img id = 'img_b2' width = 18% height = 32% style = 'position:absolute;top:10%;right:25%'>
    <img id = 'img_b3' width = 18% height = 32% style = 'position:absolute;bottom:10%;left:25%'>
    <img id = 'img_b4' width = 18% height = 32% style = 'position:absolute;bottom:10%;right:25%'>
    <div id = 'cum' style = 'position:absolute;top:5%;right:5%;font-size:calc(18px + 6 * ((100vw - 320px) / 680))'></div>
  ","""","""","""","""","""","""","""","""","""","2021-05-05 15:23:50",182.78.211.150,"Mozilla/5.0 (Windows NT 10.0; Win64; x64) AppleWebKit/537.36 (KHTML, like Gecko) Chrome/90.0.4430.93 Safari/537.36",WebKit,Chrome,90.0.4430.93,Windows,10.0
63,1,null,null,html-keyboard-response,73,130166,0.0-73.0,IwAR16pyVodBZIYU6HmXdJxwZ-ZzbfrFCyK_TIvHb2-yMuU9cV2mq6K5yuG7c,"
    <img id = 'img_b1' width = 18% height = 32% style = 'position:absolute;top:10%;left:25%'>
    <img id = 'img_b2' width = 18% height = 32% style = 'position:absolute;top:10%;right:25%'>
    <img id = 'img_b3' width = 18% height = 32% style = 'position:absolute;bottom:10%;left:25%'>
    <img id = 'img_b4' width = 18% height = 32% style = 'position:absolute;bottom:10%;right:25%'>
    <div id = 'band_txt'></div>
    <div id = 'cum' style = 'position:absolute;top:5%;right:5%;font-size:calc(18px + 6 * ((100vw - 320px) / 680))'></div>
  ","""","""","""","""","""","""","""","""","""","2021-05-05 15:23:50",182.78.211.150,"Mozilla/5.0 (Windows NT 10.0; Win64; x64) AppleWebKit/537.36 (KHTML, like Gecko) Chrome/90.0.4430.93 Safari/537.36",WebKit,Chrome,90.0.4430.93,Windows,10.0
63,1,null,null,html-keyboard-response,74,131674,0.0-74.0,IwAR16pyVodBZIYU6HmXdJxwZ-ZzbfrFCyK_TIvHb2-yMuU9cV2mq6K5yuG7c,"<div style=""font-size:60px;"">+</div>","""","""","""","""","""","""","""","""","""","2021-05-05 15:23:50",182.78.211.150,"Mozilla/5.0 (Windows NT 10.0; Win64; x64) AppleWebKit/537.36 (KHTML, like Gecko) Chrome/90.0.4430.93 Safari/537.36",WebKit,Chrome,90.0.4430.93,Windows,10.0
63,1,633.0549999838695,q,html-keyboard-response,75,132308,0.0-75.0,IwAR16pyVodBZIYU6HmXdJxwZ-ZzbfrFCyK_TIvHb2-yMuU9cV2mq6K5yuG7c,"
    <img id = 'img_b1' width = 18% height = 32% style = 'position:absolute;top:10%;left:25%'>
    <img id = 'img_b2' width = 18% height = 32% style = 'position:absolute;top:10%;right:25%'>
    <img id = 'img_b3' width = 18% height = 32% style = 'position:absolute;bottom:10%;left:25%'>
    <img id = 'img_b4' width = 18% height = 32% style = 'position:absolute;bottom:10%;right:25%'>
    <div id = 'cum' style = 'position:absolute;top:5%;right:5%;font-size:calc(18px + 6 * ((100vw - 320px) / 680))'></div>
  ","""","""","""","""","""","""","""","""","""","2021-05-05 15:23:50",182.78.211.150,"Mozilla/5.0 (Windows NT 10.0; Win64; x64) AppleWebKit/537.36 (KHTML, like Gecko) Chrome/90.0.4430.93 Safari/537.36",WebKit,Chrome,90.0.4430.93,Windows,10.0
63,1,null,null,html-keyboard-response,76,133814,0.0-76.0,IwAR16pyVodBZIYU6HmXdJxwZ-ZzbfrFCyK_TIvHb2-yMuU9cV2mq6K5yuG7c,"
    <img id = 'img_b1' width = 18% height = 32% style = 'position:absolute;top:10%;left:25%'>
    <img id = 'img_b2' width = 18% height = 32% style = 'position:absolute;top:10%;right:25%'>
    <img id = 'img_b3' width = 18% height = 32% style = 'position:absolute;bottom:10%;left:25%'>
    <img id = 'img_b4' width = 18% height = 32% style = 'position:absolute;bottom:10%;right:25%'>
    <div id = 'band_txt'></div>
    <div id = 'cum' style = 'position:absolute;top:5%;right:5%;font-size:calc(18px + 6 * ((100vw - 320px) / 680))'></div>
  ","""","""","""","""","""","""","""","""","""","2021-05-05 15:23:50",182.78.211.150,"Mozilla/5.0 (Windows NT 10.0; Win64; x64) AppleWebKit/537.36 (KHTML, like Gecko) Chrome/90.0.4430.93 Safari/537.36",WebKit,Chrome,90.0.4430.93,Windows,10.0
63,1,null,null,html-keyboard-response,77,135570,0.0-77.0,IwAR16pyVodBZIYU6HmXdJxwZ-ZzbfrFCyK_TIvHb2-yMuU9cV2mq6K5yuG7c,"<div style=""font-size:60px;"">+</div>","""","""","""","""","""","""","""","""","""","2021-05-05 15:23:50",182.78.211.150,"Mozilla/5.0 (Windows NT 10.0; Win64; x64) AppleWebKit/537.36 (KHTML, like Gecko) Chrome/90.0.4430.93 Safari/537.36",WebKit,Chrome,90.0.4430.93,Windows,10.0
63,1,652.6600000215694,z,html-keyboard-response,78,136225,0.0-78.0,IwAR16pyVodBZIYU6HmXdJxwZ-ZzbfrFCyK_TIvHb2-yMuU9cV2mq6K5yuG7c,"
    <img id = 'img_b1' width = 18% height = 32% style = 'position:absolute;top:10%;left:25%'>
    <img id = 'img_b2' width = 18% height = 32% style = 'position:absolute;top:10%;right:25%'>
    <img id = 'img_b3' width = 18% height = 32% style = 'position:absolute;bottom:10%;left:25%'>
    <img id = 'img_b4' width = 18% height = 32% style = 'position:absolute;bottom:10%;right:25%'>
    <div id = 'cum' style = 'position:absolute;top:5%;right:5%;font-size:calc(18px + 6 * ((100vw - 320px) / 680))'></div>
  ","""","""","""","""","""","""","""","""","""","2021-05-05 15:23:50",182.78.211.150,"Mozilla/5.0 (Windows NT 10.0; Win64; x64) AppleWebKit/537.36 (KHTML, like Gecko) Chrome/90.0.4430.93 Safari/537.36",WebKit,Chrome,90.0.4430.93,Windows,10.0
63,1,null,null,html-keyboard-response,79,137731,0.0-79.0,IwAR16pyVodBZIYU6HmXdJxwZ-ZzbfrFCyK_TIvHb2-yMuU9cV2mq6K5yuG7c,"
    <img id = 'img_b1' width = 18% height = 32% style = 'position:absolute;top:10%;left:25%'>
    <img id = 'img_b2' width = 18% height = 32% style = 'position:absolute;top:10%;right:25%'>
    <img id = 'img_b3' width = 18% height = 32% style = 'position:absolute;bottom:10%;left:25%'>
    <img id = 'img_b4' width = 18% height = 32% style = 'position:absolute;bottom:10%;right:25%'>
    <div id = 'band_txt'></div>
    <div id = 'cum' style = 'position:absolute;top:5%;right:5%;font-size:calc(18px + 6 * ((100vw - 320px) / 680))'></div>
  ","""","""","""","""","""","""","""","""","""","2021-05-05 15:23:50",182.78.211.150,"Mozilla/5.0 (Windows NT 10.0; Win64; x64) AppleWebKit/537.36 (KHTML, like Gecko) Chrome/90.0.4430.93 Safari/537.36",WebKit,Chrome,90.0.4430.93,Windows,10.0
63,1,null,null,html-keyboard-response,80,138747,0.0-80.0,IwAR16pyVodBZIYU6HmXdJxwZ-ZzbfrFCyK_TIvHb2-yMuU9cV2mq6K5yuG7c,"<div style=""font-size:60px;"">+</div>","""","""","""","""","""","""","""","""","""","2021-05-05 15:23:50",182.78.211.150,"Mozilla/5.0 (Windows NT 10.0; Win64; x64) AppleWebKit/537.36 (KHTML, like Gecko) Chrome/90.0.4430.93 Safari/537.36",WebKit,Chrome,90.0.4430.93,Windows,10.0
63,1,1502.1449999767356,p,html-keyboard-response,81,140250,0.0-81.0,IwAR16pyVodBZIYU6HmXdJxwZ-ZzbfrFCyK_TIvHb2-yMuU9cV2mq6K5yuG7c,"
    <img id = 'img_b1' width = 18% height = 32% style = 'position:absolute;top:10%;left:25%'>
    <img id = 'img_b2' width = 18% height = 32% style = 'position:absolute;top:10%;right:25%'>
    <img id = 'img_b3' width = 18% height = 32% style = 'position:absolute;bottom:10%;left:25%'>
    <img id = 'img_b4' width = 18% height = 32% style = 'position:absolute;bottom:10%;right:25%'>
    <div id = 'cum' style = 'position:absolute;top:5%;right:5%;font-size:calc(18px + 6 * ((100vw - 320px) / 680))'></div>
  ","""","""","""","""","""","""","""","""","""","2021-05-05 15:23:50",182.78.211.150,"Mozilla/5.0 (Windows NT 10.0; Win64; x64) AppleWebKit/537.36 (KHTML, like Gecko) Chrome/90.0.4430.93 Safari/537.36",WebKit,Chrome,90.0.4430.93,Windows,10.0
63,1,null,null,html-keyboard-response,82,141758,0.0-82.0,IwAR16pyVodBZIYU6HmXdJxwZ-ZzbfrFCyK_TIvHb2-yMuU9cV2mq6K5yuG7c,"
    <img id = 'img_b1' width = 18% height = 32% style = 'position:absolute;top:10%;left:25%'>
    <img id = 'img_b2' width = 18% height = 32% style = 'position:absolute;top:10%;right:25%'>
    <img id = 'img_b3' width = 18% height = 32% style = 'position:absolute;bottom:10%;left:25%'>
    <img id = 'img_b4' width = 18% height = 32% style = 'position:absolute;bottom:10%;right:25%'>
    <div id = 'band_txt'></div>
    <div id = 'cum' style = 'position:absolute;top:5%;right:5%;font-size:calc(18px + 6 * ((100vw - 320px) / 680))'></div>
  ","""","""","""","""","""","""","""","""","""","2021-05-05 15:23:50",182.78.211.150,"Mozilla/5.0 (Windows NT 10.0; Win64; x64) AppleWebKit/537.36 (KHTML, like Gecko) Chrome/90.0.4430.93 Safari/537.36",WebKit,Chrome,90.0.4430.93,Windows,10.0
63,1,null,null,html-keyboard-response,83,142770,0.0-83.0,IwAR16pyVodBZIYU6HmXdJxwZ-ZzbfrFCyK_TIvHb2-yMuU9cV2mq6K5yuG7c,"<div style=""font-size:60px;"">+</div>","""","""","""","""","""","""","""","""","""","2021-05-05 15:23:50",182.78.211.150,"Mozilla/5.0 (Windows NT 10.0; Win64; x64) AppleWebKit/537.36 (KHTML, like Gecko) Chrome/90.0.4430.93 Safari/537.36",WebKit,Chrome,90.0.4430.93,Windows,10.0
63,1,654.0249999961816,z,html-keyboard-response,84,143426,0.0-84.0,IwAR16pyVodBZIYU6HmXdJxwZ-ZzbfrFCyK_TIvHb2-yMuU9cV2mq6K5yuG7c,"
    <img id = 'img_b1' width = 18% height = 32% style = 'position:absolute;top:10%;left:25%'>
    <img id = 'img_b2' width = 18% height = 32% style = 'position:absolute;top:10%;right:25%'>
    <img id = 'img_b3' width = 18% height = 32% style = 'position:absolute;bottom:10%;left:25%'>
    <img id = 'img_b4' width = 18% height = 32% style = 'position:absolute;bottom:10%;right:25%'>
    <div id = 'cum' style = 'position:absolute;top:5%;right:5%;font-size:calc(18px + 6 * ((100vw - 320px) / 680))'></div>
  ","""","""","""","""","""","""","""","""","""","2021-05-05 15:23:50",182.78.211.150,"Mozilla/5.0 (Windows NT 10.0; Win64; x64) AppleWebKit/537.36 (KHTML, like Gecko) Chrome/90.0.4430.93 Safari/537.36",WebKit,Chrome,90.0.4430.93,Windows,10.0
63,1,null,null,html-keyboard-response,85,144928,0.0-85.0,IwAR16pyVodBZIYU6HmXdJxwZ-ZzbfrFCyK_TIvHb2-yMuU9cV2mq6K5yuG7c,"
    <img id = 'img_b1' width = 18% height = 32% style = 'position:absolute;top:10%;left:25%'>
    <img id = 'img_b2' width = 18% height = 32% style = 'position:absolute;top:10%;right:25%'>
    <img id = 'img_b3' width = 18% height = 32% style = 'position:absolute;bottom:10%;left:25%'>
    <img id = 'img_b4' width = 18% height = 32% style = 'position:absolute;bottom:10%;right:25%'>
    <div id = 'band_txt'></div>
    <div id = 'cum' style = 'position:absolute;top:5%;right:5%;font-size:calc(18px + 6 * ((100vw - 320px) / 680))'></div>
  ","""","""","""","""","""","""","""","""","""","2021-05-05 15:23:50",182.78.211.150,"Mozilla/5.0 (Windows NT 10.0; Win64; x64) AppleWebKit/537.36 (KHTML, like Gecko) Chrome/90.0.4430.93 Safari/537.36",WebKit,Chrome,90.0.4430.93,Windows,10.0
63,1,null,null,html-keyboard-response,86,146188,0.0-86.0,IwAR16pyVodBZIYU6HmXdJxwZ-ZzbfrFCyK_TIvHb2-yMuU9cV2mq6K5yuG7c,"<div style=""font-size:60px;"">+</div>","""","""","""","""","""","""","""","""","""","2021-05-05 15:23:50",182.78.211.150,"Mozilla/5.0 (Windows NT 10.0; Win64; x64) AppleWebKit/537.36 (KHTML, like Gecko) Chrome/90.0.4430.93 Safari/537.36",WebKit,Chrome,90.0.4430.93,Windows,10.0
63,1,573.8499999861233,p,html-keyboard-response,87,146763,0.0-87.0,IwAR16pyVodBZIYU6HmXdJxwZ-ZzbfrFCyK_TIvHb2-yMuU9cV2mq6K5yuG7c,"
    <img id = 'img_b1' width = 18% height = 32% style = 'position:absolute;top:10%;left:25%'>
    <img id = 'img_b2' width = 18% height = 32% style = 'position:absolute;top:10%;right:25%'>
    <img id = 'img_b3' width = 18% height = 32% style = 'position:absolute;bottom:10%;left:25%'>
    <img id = 'img_b4' width = 18% height = 32% style = 'position:absolute;bottom:10%;right:25%'>
    <div id = 'cum' style = 'position:absolute;top:5%;right:5%;font-size:calc(18px + 6 * ((100vw - 320px) / 680))'></div>
  ","""","""","""","""","""","""","""","""","""","2021-05-05 15:23:50",182.78.211.150,"Mozilla/5.0 (Windows NT 10.0; Win64; x64) AppleWebKit/537.36 (KHTML, like Gecko) Chrome/90.0.4430.93 Safari/537.36",WebKit,Chrome,90.0.4430.93,Windows,10.0
63,1,null,null,html-keyboard-response,88,148271,0.0-88.0,IwAR16pyVodBZIYU6HmXdJxwZ-ZzbfrFCyK_TIvHb2-yMuU9cV2mq6K5yuG7c,"
    <img id = 'img_b1' width = 18% height = 32% style = 'position:absolute;top:10%;left:25%'>
    <img id = 'img_b2' width = 18% height = 32% style = 'position:absolute;top:10%;right:25%'>
    <img id = 'img_b3' width = 18% height = 32% style = 'position:absolute;bottom:10%;left:25%'>
    <img id = 'img_b4' width = 18% height = 32% style = 'position:absolute;bottom:10%;right:25%'>
    <div id = 'band_txt'></div>
    <div id = 'cum' style = 'position:absolute;top:5%;right:5%;font-size:calc(18px + 6 * ((100vw - 320px) / 680))'></div>
  ","""","""","""","""","""","""","""","""","""","2021-05-05 15:23:50",182.78.211.150,"Mozilla/5.0 (Windows NT 10.0; Win64; x64) AppleWebKit/537.36 (KHTML, like Gecko) Chrome/90.0.4430.93 Safari/537.36",WebKit,Chrome,90.0.4430.93,Windows,10.0
63,1,null,null,html-keyboard-response,89,149779,0.0-89.0,IwAR16pyVodBZIYU6HmXdJxwZ-ZzbfrFCyK_TIvHb2-yMuU9cV2mq6K5yuG7c,"<div style=""font-size:60px;"">+</div>","""","""","""","""","""","""","""","""","""","2021-05-05 15:23:50",182.78.211.150,"Mozilla/5.0 (Windows NT 10.0; Win64; x64) AppleWebKit/537.36 (KHTML, like Gecko) Chrome/90.0.4430.93 Safari/537.36",WebKit,Chrome,90.0.4430.93,Windows,10.0
63,1,344.3950000219047,z,html-keyboard-response,90,150124,0.0-90.0,IwAR16pyVodBZIYU6HmXdJxwZ-ZzbfrFCyK_TIvHb2-yMuU9cV2mq6K5yuG7c,"
    <img id = 'img_b1' width = 18% height = 32% style = 'position:absolute;top:10%;left:25%'>
    <img id = 'img_b2' width = 18% height = 32% style = 'position:absolute;top:10%;right:25%'>
    <img id = 'img_b3' width = 18% height = 32% style = 'position:absolute;bottom:10%;left:25%'>
    <img id = 'img_b4' width = 18% height = 32% style = 'position:absolute;bottom:10%;right:25%'>
    <div id = 'cum' style = 'position:absolute;top:5%;right:5%;font-size:calc(18px + 6 * ((100vw - 320px) / 680))'></div>
  ","""","""","""","""","""","""","""","""","""","2021-05-05 15:23:50",182.78.211.150,"Mozilla/5.0 (Windows NT 10.0; Win64; x64) AppleWebKit/537.36 (KHTML, like Gecko) Chrome/90.0.4430.93 Safari/537.36",WebKit,Chrome,90.0.4430.93,Windows,10.0
63,1,null,null,html-keyboard-response,91,151627,0.0-91.0,IwAR16pyVodBZIYU6HmXdJxwZ-ZzbfrFCyK_TIvHb2-yMuU9cV2mq6K5yuG7c,"
    <img id = 'img_b1' width = 18% height = 32% style = 'position:absolute;top:10%;left:25%'>
    <img id = 'img_b2' width = 18% height = 32% style = 'position:absolute;top:10%;right:25%'>
    <img id = 'img_b3' width = 18% height = 32% style = 'position:absolute;bottom:10%;left:25%'>
    <img id = 'img_b4' width = 18% height = 32% style = 'position:absolute;bottom:10%;right:25%'>
    <div id = 'band_txt'></div>
    <div id = 'cum' style = 'position:absolute;top:5%;right:5%;font-size:calc(18px + 6 * ((100vw - 320px) / 680))'></div>
  ","""","""","""","""","""","""","""","""","""","2021-05-05 15:23:50",182.78.211.150,"Mozilla/5.0 (Windows NT 10.0; Win64; x64) AppleWebKit/537.36 (KHTML, like Gecko) Chrome/90.0.4430.93 Safari/537.36",WebKit,Chrome,90.0.4430.93,Windows,10.0
63,1,null,null,html-keyboard-response,92,153385,0.0-92.0,IwAR16pyVodBZIYU6HmXdJxwZ-ZzbfrFCyK_TIvHb2-yMuU9cV2mq6K5yuG7c,"<div style=""font-size:60px;"">+</div>","""","""","""","""","""","""","""","""","""","2021-05-05 15:23:50",182.78.211.150,"Mozilla/5.0 (Windows NT 10.0; Win64; x64) AppleWebKit/537.36 (KHTML, like Gecko) Chrome/90.0.4430.93 Safari/537.36",WebKit,Chrome,90.0.4430.93,Windows,10.0
63,1,1706.7449999740347,p,html-keyboard-response,93,155092,0.0-93.0,IwAR16pyVodBZIYU6HmXdJxwZ-ZzbfrFCyK_TIvHb2-yMuU9cV2mq6K5yuG7c,"
    <img id = 'img_b1' width = 18% height = 32% style = 'position:absolute;top:10%;left:25%'>
    <img id = 'img_b2' width = 18% height = 32% style = 'position:absolute;top:10%;right:25%'>
    <img id = 'img_b3' width = 18% height = 32% style = 'position:absolute;bottom:10%;left:25%'>
    <img id = 'img_b4' width = 18% height = 32% style = 'position:absolute;bottom:10%;right:25%'>
    <div id = 'cum' style = 'position:absolute;top:5%;right:5%;font-size:calc(18px + 6 * ((100vw - 320px) / 680))'></div>
  ","""","""","""","""","""","""","""","""","""","2021-05-05 15:23:50",182.78.211.150,"Mozilla/5.0 (Windows NT 10.0; Win64; x64) AppleWebKit/537.36 (KHTML, like Gecko) Chrome/90.0.4430.93 Safari/537.36",WebKit,Chrome,90.0.4430.93,Windows,10.0
63,1,null,null,html-keyboard-response,94,156600,0.0-94.0,IwAR16pyVodBZIYU6HmXdJxwZ-ZzbfrFCyK_TIvHb2-yMuU9cV2mq6K5yuG7c,"
    <img id = 'img_b1' width = 18% height = 32% style = 'position:absolute;top:10%;left:25%'>
    <img id = 'img_b2' width = 18% height = 32% style = 'position:absolute;top:10%;right:25%'>
    <img id = 'img_b3' width = 18% height = 32% style = 'position:absolute;bottom:10%;left:25%'>
    <img id = 'img_b4' width = 18% height = 32% style = 'position:absolute;bottom:10%;right:25%'>
    <div id = 'band_txt'></div>
    <div id = 'cum' style = 'position:absolute;top:5%;right:5%;font-size:calc(18px + 6 * ((100vw - 320px) / 680))'></div>
  ","""","""","""","""","""","""","""","""","""","2021-05-05 15:23:50",182.78.211.150,"Mozilla/5.0 (Windows NT 10.0; Win64; x64) AppleWebKit/537.36 (KHTML, like Gecko) Chrome/90.0.4430.93 Safari/537.36",WebKit,Chrome,90.0.4430.93,Windows,10.0
63,1,null,null,html-keyboard-response,95,158104,0.0-95.0,IwAR16pyVodBZIYU6HmXdJxwZ-ZzbfrFCyK_TIvHb2-yMuU9cV2mq6K5yuG7c,"<div style=""font-size:60px;"">+</div>","""","""","""","""","""","""","""","""","""","2021-05-05 15:23:50",182.78.211.150,"Mozilla/5.0 (Windows NT 10.0; Win64; x64) AppleWebKit/537.36 (KHTML, like Gecko) Chrome/90.0.4430.93 Safari/537.36",WebKit,Chrome,90.0.4430.93,Windows,10.0
63,1,873.0600000126287,z,html-keyboard-response,96,158978,0.0-96.0,IwAR16pyVodBZIYU6HmXdJxwZ-ZzbfrFCyK_TIvHb2-yMuU9cV2mq6K5yuG7c,"
    <img id = 'img_b1' width = 18% height = 32% style = 'position:absolute;top:10%;left:25%'>
    <img id = 'img_b2' width = 18% height = 32% style = 'position:absolute;top:10%;right:25%'>
    <img id = 'img_b3' width = 18% height = 32% style = 'position:absolute;bottom:10%;left:25%'>
    <img id = 'img_b4' width = 18% height = 32% style = 'position:absolute;bottom:10%;right:25%'>
    <div id = 'cum' style = 'position:absolute;top:5%;right:5%;font-size:calc(18px + 6 * ((100vw - 320px) / 680))'></div>
  ","""","""","""","""","""","""","""","""","""","2021-05-05 15:23:50",182.78.211.150,"Mozilla/5.0 (Windows NT 10.0; Win64; x64) AppleWebKit/537.36 (KHTML, like Gecko) Chrome/90.0.4430.93 Safari/537.36",WebKit,Chrome,90.0.4430.93,Windows,10.0
63,1,null,null,html-keyboard-response,97,160481,0.0-97.0,IwAR16pyVodBZIYU6HmXdJxwZ-ZzbfrFCyK_TIvHb2-yMuU9cV2mq6K5yuG7c,"
    <img id = 'img_b1' width = 18% height = 32% style = 'position:absolute;top:10%;left:25%'>
    <img id = 'img_b2' width = 18% height = 32% style = 'position:absolute;top:10%;right:25%'>
    <img id = 'img_b3' width = 18% height = 32% style = 'position:absolute;bottom:10%;left:25%'>
    <img id = 'img_b4' width = 18% height = 32% style = 'position:absolute;bottom:10%;right:25%'>
    <div id = 'band_txt'></div>
    <div id = 'cum' style = 'position:absolute;top:5%;right:5%;font-size:calc(18px + 6 * ((100vw - 320px) / 680))'></div>
  ","""","""","""","""","""","""","""","""","""","2021-05-05 15:23:50",182.78.211.150,"Mozilla/5.0 (Windows NT 10.0; Win64; x64) AppleWebKit/537.36 (KHTML, like Gecko) Chrome/90.0.4430.93 Safari/537.36",WebKit,Chrome,90.0.4430.93,Windows,10.0
63,1,null,null,html-keyboard-response,98,161243,0.0-98.0,IwAR16pyVodBZIYU6HmXdJxwZ-ZzbfrFCyK_TIvHb2-yMuU9cV2mq6K5yuG7c,"<div style=""font-size:60px;"">+</div>","""","""","""","""","""","""","""","""","""","2021-05-05 15:23:50",182.78.211.150,"Mozilla/5.0 (Windows NT 10.0; Win64; x64) AppleWebKit/537.36 (KHTML, like Gecko) Chrome/90.0.4430.93 Safari/537.36",WebKit,Chrome,90.0.4430.93,Windows,10.0
63,1,320.2049999963492,p,html-keyboard-response,99,161564,0.0-99.0,IwAR16pyVodBZIYU6HmXdJxwZ-ZzbfrFCyK_TIvHb2-yMuU9cV2mq6K5yuG7c,"
    <img id = 'img_b1' width = 18% height = 32% style = 'position:absolute;top:10%;left:25%'>
    <img id = 'img_b2' width = 18% height = 32% style = 'position:absolute;top:10%;right:25%'>
    <img id = 'img_b3' width = 18% height = 32% style = 'position:absolute;bottom:10%;left:25%'>
    <img id = 'img_b4' width = 18% height = 32% style = 'position:absolute;bottom:10%;right:25%'>
    <div id = 'cum' style = 'position:absolute;top:5%;right:5%;font-size:calc(18px + 6 * ((100vw - 320px) / 680))'></div>
  ","""","""","""","""","""","""","""","""","""","2021-05-05 15:23:50",182.78.211.150,"Mozilla/5.0 (Windows NT 10.0; Win64; x64) AppleWebKit/537.36 (KHTML, like Gecko) Chrome/90.0.4430.93 Safari/537.36",WebKit,Chrome,90.0.4430.93,Windows,10.0
63,1,null,null,html-keyboard-response,100,163080,0.0-100.0,IwAR16pyVodBZIYU6HmXdJxwZ-ZzbfrFCyK_TIvHb2-yMuU9cV2mq6K5yuG7c,"
    <img id = 'img_b1' width = 18% height = 32% style = 'position:absolute;top:10%;left:25%'>
    <img id = 'img_b2' width = 18% height = 32% style = 'position:absolute;top:10%;right:25%'>
    <img id = 'img_b3' width = 18% height = 32% style = 'position:absolute;bottom:10%;left:25%'>
    <img id = 'img_b4' width = 18% height = 32% style = 'position:absolute;bottom:10%;right:25%'>
    <div id = 'band_txt'></div>
    <div id = 'cum' style = 'position:absolute;top:5%;right:5%;font-size:calc(18px + 6 * ((100vw - 320px) / 680))'></div>
  ","""","""","""","""","""","""","""","""","""","2021-05-05 15:23:50",182.78.211.150,"Mozilla/5.0 (Windows NT 10.0; Win64; x64) AppleWebKit/537.36 (KHTML, like Gecko) Chrome/90.0.4430.93 Safari/537.36",WebKit,Chrome,90.0.4430.93,Windows,10.0
63,1,null,null,html-keyboard-response,101,164586,0.0-101.0,IwAR16pyVodBZIYU6HmXdJxwZ-ZzbfrFCyK_TIvHb2-yMuU9cV2mq6K5yuG7c,"<div style=""font-size:60px;"">+</div>","""","""","""","""","""","""","""","""","""","2021-05-05 15:23:50",182.78.211.150,"Mozilla/5.0 (Windows NT 10.0; Win64; x64) AppleWebKit/537.36 (KHTML, like Gecko) Chrome/90.0.4430.93 Safari/537.36",WebKit,Chrome,90.0.4430.93,Windows,10.0
63,1,667.9300000541843,p,html-keyboard-response,102,165256,0.0-102.0,IwAR16pyVodBZIYU6HmXdJxwZ-ZzbfrFCyK_TIvHb2-yMuU9cV2mq6K5yuG7c,"
    <img id = 'img_b1' width = 18% height = 32% style = 'position:absolute;top:10%;left:25%'>
    <img id = 'img_b2' width = 18% height = 32% style = 'position:absolute;top:10%;right:25%'>
    <img id = 'img_b3' width = 18% height = 32% style = 'position:absolute;bottom:10%;left:25%'>
    <img id = 'img_b4' width = 18% height = 32% style = 'position:absolute;bottom:10%;right:25%'>
    <div id = 'cum' style = 'position:absolute;top:5%;right:5%;font-size:calc(18px + 6 * ((100vw - 320px) / 680))'></div>
  ","""","""","""","""","""","""","""","""","""","2021-05-05 15:23:50",182.78.211.150,"Mozilla/5.0 (Windows NT 10.0; Win64; x64) AppleWebKit/537.36 (KHTML, like Gecko) Chrome/90.0.4430.93 Safari/537.36",WebKit,Chrome,90.0.4430.93,Windows,10.0
63,1,null,null,html-keyboard-response,103,166761,0.0-103.0,IwAR16pyVodBZIYU6HmXdJxwZ-ZzbfrFCyK_TIvHb2-yMuU9cV2mq6K5yuG7c,"
    <img id = 'img_b1' width = 18% height = 32% style = 'position:absolute;top:10%;left:25%'>
    <img id = 'img_b2' width = 18% height = 32% style = 'position:absolute;top:10%;right:25%'>
    <img id = 'img_b3' width = 18% height = 32% style = 'position:absolute;bottom:10%;left:25%'>
    <img id = 'img_b4' width = 18% height = 32% style = 'position:absolute;bottom:10%;right:25%'>
    <div id = 'band_txt'></div>
    <div id = 'cum' style = 'position:absolute;top:5%;right:5%;font-size:calc(18px + 6 * ((100vw - 320px) / 680))'></div>
  ","""","""","""","""","""","""","""","""","""","2021-05-05 15:23:50",182.78.211.150,"Mozilla/5.0 (Windows NT 10.0; Win64; x64) AppleWebKit/537.36 (KHTML, like Gecko) Chrome/90.0.4430.93 Safari/537.36",WebKit,Chrome,90.0.4430.93,Windows,10.0
63,1,null,null,html-keyboard-response,104,167774,0.0-104.0,IwAR16pyVodBZIYU6HmXdJxwZ-ZzbfrFCyK_TIvHb2-yMuU9cV2mq6K5yuG7c,"<div style=""font-size:60px;"">+</div>","""","""","""","""","""","""","""","""","""","2021-05-05 15:23:50",182.78.211.150,"Mozilla/5.0 (Windows NT 10.0; Win64; x64) AppleWebKit/537.36 (KHTML, like Gecko) Chrome/90.0.4430.93 Safari/537.36",WebKit,Chrome,90.0.4430.93,Windows,10.0
63,1,403.2250000163913,m,html-keyboard-response,105,168178,0.0-105.0,IwAR16pyVodBZIYU6HmXdJxwZ-ZzbfrFCyK_TIvHb2-yMuU9cV2mq6K5yuG7c,"
    <img id = 'img_b1' width = 18% height = 32% style = 'position:absolute;top:10%;left:25%'>
    <img id = 'img_b2' width = 18% height = 32% style = 'position:absolute;top:10%;right:25%'>
    <img id = 'img_b3' width = 18% height = 32% style = 'position:absolute;bottom:10%;left:25%'>
    <img id = 'img_b4' width = 18% height = 32% style = 'position:absolute;bottom:10%;right:25%'>
    <div id = 'cum' style = 'position:absolute;top:5%;right:5%;font-size:calc(18px + 6 * ((100vw - 320px) / 680))'></div>
  ","""","""","""","""","""","""","""","""","""","2021-05-05 15:23:50",182.78.211.150,"Mozilla/5.0 (Windows NT 10.0; Win64; x64) AppleWebKit/537.36 (KHTML, like Gecko) Chrome/90.0.4430.93 Safari/537.36",WebKit,Chrome,90.0.4430.93,Windows,10.0
63,1,null,null,html-keyboard-response,106,169692,0.0-106.0,IwAR16pyVodBZIYU6HmXdJxwZ-ZzbfrFCyK_TIvHb2-yMuU9cV2mq6K5yuG7c,"
    <img id = 'img_b1' width = 18% height = 32% style = 'position:absolute;top:10%;left:25%'>
    <img id = 'img_b2' width = 18% height = 32% style = 'position:absolute;top:10%;right:25%'>
    <img id = 'img_b3' width = 18% height = 32% style = 'position:absolute;bottom:10%;left:25%'>
    <img id = 'img_b4' width = 18% height = 32% style = 'position:absolute;bottom:10%;right:25%'>
    <div id = 'band_txt'></div>
    <div id = 'cum' style = 'position:absolute;top:5%;right:5%;font-size:calc(18px + 6 * ((100vw - 320px) / 680))'></div>
  ","""","""","""","""","""","""","""","""","""","2021-05-05 15:23:50",182.78.211.150,"Mozilla/5.0 (Windows NT 10.0; Win64; x64) AppleWebKit/537.36 (KHTML, like Gecko) Chrome/90.0.4430.93 Safari/537.36",WebKit,Chrome,90.0.4430.93,Windows,10.0
63,1,null,null,html-keyboard-response,107,171198,0.0-107.0,IwAR16pyVodBZIYU6HmXdJxwZ-ZzbfrFCyK_TIvHb2-yMuU9cV2mq6K5yuG7c,"<div style=""font-size:60px;"">+</div>","""","""","""","""","""","""","""","""","""","2021-05-05 15:23:50",182.78.211.150,"Mozilla/5.0 (Windows NT 10.0; Win64; x64) AppleWebKit/537.36 (KHTML, like Gecko) Chrome/90.0.4430.93 Safari/537.36",WebKit,Chrome,90.0.4430.93,Windows,10.0
63,1,240.53000001003966,p,html-keyboard-response,108,171441,0.0-108.0,IwAR16pyVodBZIYU6HmXdJxwZ-ZzbfrFCyK_TIvHb2-yMuU9cV2mq6K5yuG7c,"
    <img id = 'img_b1' width = 18% height = 32% style = 'position:absolute;top:10%;left:25%'>
    <img id = 'img_b2' width = 18% height = 32% style = 'position:absolute;top:10%;right:25%'>
    <img id = 'img_b3' width = 18% height = 32% style = 'position:absolute;bottom:10%;left:25%'>
    <img id = 'img_b4' width = 18% height = 32% style = 'position:absolute;bottom:10%;right:25%'>
    <div id = 'cum' style = 'position:absolute;top:5%;right:5%;font-size:calc(18px + 6 * ((100vw - 320px) / 680))'></div>
  ","""","""","""","""","""","""","""","""","""","2021-05-05 15:23:50",182.78.211.150,"Mozilla/5.0 (Windows NT 10.0; Win64; x64) AppleWebKit/537.36 (KHTML, like Gecko) Chrome/90.0.4430.93 Safari/537.36",WebKit,Chrome,90.0.4430.93,Windows,10.0
63,1,null,null,html-keyboard-response,109,172944,0.0-109.0,IwAR16pyVodBZIYU6HmXdJxwZ-ZzbfrFCyK_TIvHb2-yMuU9cV2mq6K5yuG7c,"
    <img id = 'img_b1' width = 18% height = 32% style = 'position:absolute;top:10%;left:25%'>
    <img id = 'img_b2' width = 18% height = 32% style = 'position:absolute;top:10%;right:25%'>
    <img id = 'img_b3' width = 18% height = 32% style = 'position:absolute;bottom:10%;left:25%'>
    <img id = 'img_b4' width = 18% height = 32% style = 'position:absolute;bottom:10%;right:25%'>
    <div id = 'band_txt'></div>
    <div id = 'cum' style = 'position:absolute;top:5%;right:5%;font-size:calc(18px + 6 * ((100vw - 320px) / 680))'></div>
  ","""","""","""","""","""","""","""","""","""","2021-05-05 15:23:50",182.78.211.150,"Mozilla/5.0 (Windows NT 10.0; Win64; x64) AppleWebKit/537.36 (KHTML, like Gecko) Chrome/90.0.4430.93 Safari/537.36",WebKit,Chrome,90.0.4430.93,Windows,10.0
63,1,null,null,html-keyboard-response,110,174701,0.0-110.0,IwAR16pyVodBZIYU6HmXdJxwZ-ZzbfrFCyK_TIvHb2-yMuU9cV2mq6K5yuG7c,"<div style=""font-size:60px;"">+</div>","""","""","""","""","""","""","""","""","""","2021-05-05 15:23:50",182.78.211.150,"Mozilla/5.0 (Windows NT 10.0; Win64; x64) AppleWebKit/537.36 (KHTML, like Gecko) Chrome/90.0.4430.93 Safari/537.36",WebKit,Chrome,90.0.4430.93,Windows,10.0
63,1,696.5549999731593,z,html-keyboard-response,111,175398,0.0-111.0,IwAR16pyVodBZIYU6HmXdJxwZ-ZzbfrFCyK_TIvHb2-yMuU9cV2mq6K5yuG7c,"
    <img id = 'img_b1' width = 18% height = 32% style = 'position:absolute;top:10%;left:25%'>
    <img id = 'img_b2' width = 18% height = 32% style = 'position:absolute;top:10%;right:25%'>
    <img id = 'img_b3' width = 18% height = 32% style = 'position:absolute;bottom:10%;left:25%'>
    <img id = 'img_b4' width = 18% height = 32% style = 'position:absolute;bottom:10%;right:25%'>
    <div id = 'cum' style = 'position:absolute;top:5%;right:5%;font-size:calc(18px + 6 * ((100vw - 320px) / 680))'></div>
  ","""","""","""","""","""","""","""","""","""","2021-05-05 15:23:50",182.78.211.150,"Mozilla/5.0 (Windows NT 10.0; Win64; x64) AppleWebKit/537.36 (KHTML, like Gecko) Chrome/90.0.4430.93 Safari/537.36",WebKit,Chrome,90.0.4430.93,Windows,10.0
63,1,null,null,html-keyboard-response,112,176901,0.0-112.0,IwAR16pyVodBZIYU6HmXdJxwZ-ZzbfrFCyK_TIvHb2-yMuU9cV2mq6K5yuG7c,"
    <img id = 'img_b1' width = 18% height = 32% style = 'position:absolute;top:10%;left:25%'>
    <img id = 'img_b2' width = 18% height = 32% style = 'position:absolute;top:10%;right:25%'>
    <img id = 'img_b3' width = 18% height = 32% style = 'position:absolute;bottom:10%;left:25%'>
    <img id = 'img_b4' width = 18% height = 32% style = 'position:absolute;bottom:10%;right:25%'>
    <div id = 'band_txt'></div>
    <div id = 'cum' style = 'position:absolute;top:5%;right:5%;font-size:calc(18px + 6 * ((100vw - 320px) / 680))'></div>
  ","""","""","""","""","""","""","""","""","""","2021-05-05 15:23:50",182.78.211.150,"Mozilla/5.0 (Windows NT 10.0; Win64; x64) AppleWebKit/537.36 (KHTML, like Gecko) Chrome/90.0.4430.93 Safari/537.36",WebKit,Chrome,90.0.4430.93,Windows,10.0
63,1,null,null,html-keyboard-response,113,178160,0.0-113.0,IwAR16pyVodBZIYU6HmXdJxwZ-ZzbfrFCyK_TIvHb2-yMuU9cV2mq6K5yuG7c,"<div style=""font-size:60px;"">+</div>","""","""","""","""","""","""","""","""","""","2021-05-05 15:23:50",182.78.211.150,"Mozilla/5.0 (Windows NT 10.0; Win64; x64) AppleWebKit/537.36 (KHTML, like Gecko) Chrome/90.0.4430.93 Safari/537.36",WebKit,Chrome,90.0.4430.93,Windows,10.0
63,1,747.655000013765,q,html-keyboard-response,114,178908,0.0-114.0,IwAR16pyVodBZIYU6HmXdJxwZ-ZzbfrFCyK_TIvHb2-yMuU9cV2mq6K5yuG7c,"
    <img id = 'img_b1' width = 18% height = 32% style = 'position:absolute;top:10%;left:25%'>
    <img id = 'img_b2' width = 18% height = 32% style = 'position:absolute;top:10%;right:25%'>
    <img id = 'img_b3' width = 18% height = 32% style = 'position:absolute;bottom:10%;left:25%'>
    <img id = 'img_b4' width = 18% height = 32% style = 'position:absolute;bottom:10%;right:25%'>
    <div id = 'cum' style = 'position:absolute;top:5%;right:5%;font-size:calc(18px + 6 * ((100vw - 320px) / 680))'></div>
  ","""","""","""","""","""","""","""","""","""","2021-05-05 15:23:50",182.78.211.150,"Mozilla/5.0 (Windows NT 10.0; Win64; x64) AppleWebKit/537.36 (KHTML, like Gecko) Chrome/90.0.4430.93 Safari/537.36",WebKit,Chrome,90.0.4430.93,Windows,10.0
63,1,null,null,html-keyboard-response,115,180416,0.0-115.0,IwAR16pyVodBZIYU6HmXdJxwZ-ZzbfrFCyK_TIvHb2-yMuU9cV2mq6K5yuG7c,"
    <img id = 'img_b1' width = 18% height = 32% style = 'position:absolute;top:10%;left:25%'>
    <img id = 'img_b2' width = 18% height = 32% style = 'position:absolute;top:10%;right:25%'>
    <img id = 'img_b3' width = 18% height = 32% style = 'position:absolute;bottom:10%;left:25%'>
    <img id = 'img_b4' width = 18% height = 32% style = 'position:absolute;bottom:10%;right:25%'>
    <div id = 'band_txt'></div>
    <div id = 'cum' style = 'position:absolute;top:5%;right:5%;font-size:calc(18px + 6 * ((100vw - 320px) / 680))'></div>
  ","""","""","""","""","""","""","""","""","""","2021-05-05 15:23:50",182.78.211.150,"Mozilla/5.0 (Windows NT 10.0; Win64; x64) AppleWebKit/537.36 (KHTML, like Gecko) Chrome/90.0.4430.93 Safari/537.36",WebKit,Chrome,90.0.4430.93,Windows,10.0
63,1,null,null,html-keyboard-response,116,181422,0.0-116.0,IwAR16pyVodBZIYU6HmXdJxwZ-ZzbfrFCyK_TIvHb2-yMuU9cV2mq6K5yuG7c,"<div style=""font-size:60px;"">+</div>","""","""","""","""","""","""","""","""","""","2021-05-05 15:23:50",182.78.211.150,"Mozilla/5.0 (Windows NT 10.0; Win64; x64) AppleWebKit/537.36 (KHTML, like Gecko) Chrome/90.0.4430.93 Safari/537.36",WebKit,Chrome,90.0.4430.93,Windows,10.0
63,1,458.23499996913597,z,html-keyboard-response,117,181881,0.0-117.0,IwAR16pyVodBZIYU6HmXdJxwZ-ZzbfrFCyK_TIvHb2-yMuU9cV2mq6K5yuG7c,"
    <img id = 'img_b1' width = 18% height = 32% style = 'position:absolute;top:10%;left:25%'>
    <img id = 'img_b2' width = 18% height = 32% style = 'position:absolute;top:10%;right:25%'>
    <img id = 'img_b3' width = 18% height = 32% style = 'position:absolute;bottom:10%;left:25%'>
    <img id = 'img_b4' width = 18% height = 32% style = 'position:absolute;bottom:10%;right:25%'>
    <div id = 'cum' style = 'position:absolute;top:5%;right:5%;font-size:calc(18px + 6 * ((100vw - 320px) / 680))'></div>
  ","""","""","""","""","""","""","""","""","""","2021-05-05 15:23:50",182.78.211.150,"Mozilla/5.0 (Windows NT 10.0; Win64; x64) AppleWebKit/537.36 (KHTML, like Gecko) Chrome/90.0.4430.93 Safari/537.36",WebKit,Chrome,90.0.4430.93,Windows,10.0
63,1,null,null,html-keyboard-response,118,183392,0.0-118.0,IwAR16pyVodBZIYU6HmXdJxwZ-ZzbfrFCyK_TIvHb2-yMuU9cV2mq6K5yuG7c,"
    <img id = 'img_b1' width = 18% height = 32% style = 'position:absolute;top:10%;left:25%'>
    <img id = 'img_b2' width = 18% height = 32% style = 'position:absolute;top:10%;right:25%'>
    <img id = 'img_b3' width = 18% height = 32% style = 'position:absolute;bottom:10%;left:25%'>
    <img id = 'img_b4' width = 18% height = 32% style = 'position:absolute;bottom:10%;right:25%'>
    <div id = 'band_txt'></div>
    <div id = 'cum' style = 'position:absolute;top:5%;right:5%;font-size:calc(18px + 6 * ((100vw - 320px) / 680))'></div>
  ","""","""","""","""","""","""","""","""","""","2021-05-05 15:23:50",182.78.211.150,"Mozilla/5.0 (Windows NT 10.0; Win64; x64) AppleWebKit/537.36 (KHTML, like Gecko) Chrome/90.0.4430.93 Safari/537.36",WebKit,Chrome,90.0.4430.93,Windows,10.0
63,1,null,null,html-keyboard-response,119,184653,0.0-119.0,IwAR16pyVodBZIYU6HmXdJxwZ-ZzbfrFCyK_TIvHb2-yMuU9cV2mq6K5yuG7c,"<div style=""font-size:60px;"">+</div>","""","""","""","""","""","""","""","""","""","2021-05-05 15:23:50",182.78.211.150,"Mozilla/5.0 (Windows NT 10.0; Win64; x64) AppleWebKit/537.36 (KHTML, like Gecko) Chrome/90.0.4430.93 Safari/537.36",WebKit,Chrome,90.0.4430.93,Windows,10.0
63,1,494.2600000067614,z,html-keyboard-response,120,185151,0.0-120.0,IwAR16pyVodBZIYU6HmXdJxwZ-ZzbfrFCyK_TIvHb2-yMuU9cV2mq6K5yuG7c,"
    <img id = 'img_b1' width = 18% height = 32% style = 'position:absolute;top:10%;left:25%'>
    <img id = 'img_b2' width = 18% height = 32% style = 'position:absolute;top:10%;right:25%'>
    <img id = 'img_b3' width = 18% height = 32% style = 'position:absolute;bottom:10%;left:25%'>
    <img id = 'img_b4' width = 18% height = 32% style = 'position:absolute;bottom:10%;right:25%'>
    <div id = 'cum' style = 'position:absolute;top:5%;right:5%;font-size:calc(18px + 6 * ((100vw - 320px) / 680))'></div>
  ","""","""","""","""","""","""","""","""","""","2021-05-05 15:23:50",182.78.211.150,"Mozilla/5.0 (Windows NT 10.0; Win64; x64) AppleWebKit/537.36 (KHTML, like Gecko) Chrome/90.0.4430.93 Safari/537.36",WebKit,Chrome,90.0.4430.93,Windows,10.0
63,1,null,null,html-keyboard-response,121,186655,0.0-121.0,IwAR16pyVodBZIYU6HmXdJxwZ-ZzbfrFCyK_TIvHb2-yMuU9cV2mq6K5yuG7c,"
    <img id = 'img_b1' width = 18% height = 32% style = 'position:absolute;top:10%;left:25%'>
    <img id = 'img_b2' width = 18% height = 32% style = 'position:absolute;top:10%;right:25%'>
    <img id = 'img_b3' width = 18% height = 32% style = 'position:absolute;bottom:10%;left:25%'>
    <img id = 'img_b4' width = 18% height = 32% style = 'position:absolute;bottom:10%;right:25%'>
    <div id = 'band_txt'></div>
    <div id = 'cum' style = 'position:absolute;top:5%;right:5%;font-size:calc(18px + 6 * ((100vw - 320px) / 680))'></div>
  ","""","""","""","""","""","""","""","""","""","2021-05-05 15:23:50",182.78.211.150,"Mozilla/5.0 (Windows NT 10.0; Win64; x64) AppleWebKit/537.36 (KHTML, like Gecko) Chrome/90.0.4430.93 Safari/537.36",WebKit,Chrome,90.0.4430.93,Windows,10.0
63,1,null,null,html-keyboard-response,122,188168,0.0-122.0,IwAR16pyVodBZIYU6HmXdJxwZ-ZzbfrFCyK_TIvHb2-yMuU9cV2mq6K5yuG7c,"<div style=""font-size:60px;"">+</div>","""","""","""","""","""","""","""","""","""","2021-05-05 15:23:50",182.78.211.150,"Mozilla/5.0 (Windows NT 10.0; Win64; x64) AppleWebKit/537.36 (KHTML, like Gecko) Chrome/90.0.4430.93 Safari/537.36",WebKit,Chrome,90.0.4430.93,Windows,10.0
63,1,736.5700000082143,z,html-keyboard-response,123,188905,0.0-123.0,IwAR16pyVodBZIYU6HmXdJxwZ-ZzbfrFCyK_TIvHb2-yMuU9cV2mq6K5yuG7c,"
    <img id = 'img_b1' width = 18% height = 32% style = 'position:absolute;top:10%;left:25%'>
    <img id = 'img_b2' width = 18% height = 32% style = 'position:absolute;top:10%;right:25%'>
    <img id = 'img_b3' width = 18% height = 32% style = 'position:absolute;bottom:10%;left:25%'>
    <img id = 'img_b4' width = 18% height = 32% style = 'position:absolute;bottom:10%;right:25%'>
    <div id = 'cum' style = 'position:absolute;top:5%;right:5%;font-size:calc(18px + 6 * ((100vw - 320px) / 680))'></div>
  ","""","""","""","""","""","""","""","""","""","2021-05-05 15:23:50",182.78.211.150,"Mozilla/5.0 (Windows NT 10.0; Win64; x64) AppleWebKit/537.36 (KHTML, like Gecko) Chrome/90.0.4430.93 Safari/537.36",WebKit,Chrome,90.0.4430.93,Windows,10.0
63,1,null,null,html-keyboard-response,124,190416,0.0-124.0,IwAR16pyVodBZIYU6HmXdJxwZ-ZzbfrFCyK_TIvHb2-yMuU9cV2mq6K5yuG7c,"
    <img id = 'img_b1' width = 18% height = 32% style = 'position:absolute;top:10%;left:25%'>
    <img id = 'img_b2' width = 18% height = 32% style = 'position:absolute;top:10%;right:25%'>
    <img id = 'img_b3' width = 18% height = 32% style = 'position:absolute;bottom:10%;left:25%'>
    <img id = 'img_b4' width = 18% height = 32% style = 'position:absolute;bottom:10%;right:25%'>
    <div id = 'band_txt'></div>
    <div id = 'cum' style = 'position:absolute;top:5%;right:5%;font-size:calc(18px + 6 * ((100vw - 320px) / 680))'></div>
  ","""","""","""","""","""","""","""","""","""","2021-05-05 15:23:50",182.78.211.150,"Mozilla/5.0 (Windows NT 10.0; Win64; x64) AppleWebKit/537.36 (KHTML, like Gecko) Chrome/90.0.4430.93 Safari/537.36",WebKit,Chrome,90.0.4430.93,Windows,10.0
63,1,null,null,html-keyboard-response,125,191423,0.0-125.0,IwAR16pyVodBZIYU6HmXdJxwZ-ZzbfrFCyK_TIvHb2-yMuU9cV2mq6K5yuG7c,"<div style=""font-size:60px;"">+</div>","""","""","""","""","""","""","""","""","""","2021-05-05 15:23:50",182.78.211.150,"Mozilla/5.0 (Windows NT 10.0; Win64; x64) AppleWebKit/537.36 (KHTML, like Gecko) Chrome/90.0.4430.93 Safari/537.36",WebKit,Chrome,90.0.4430.93,Windows,10.0
63,1,986.1699999892153,z,html-keyboard-response,126,192412,0.0-126.0,IwAR16pyVodBZIYU6HmXdJxwZ-ZzbfrFCyK_TIvHb2-yMuU9cV2mq6K5yuG7c,"
    <img id = 'img_b1' width = 18% height = 32% style = 'position:absolute;top:10%;left:25%'>
    <img id = 'img_b2' width = 18% height = 32% style = 'position:absolute;top:10%;right:25%'>
    <img id = 'img_b3' width = 18% height = 32% style = 'position:absolute;bottom:10%;left:25%'>
    <img id = 'img_b4' width = 18% height = 32% style = 'position:absolute;bottom:10%;right:25%'>
    <div id = 'cum' style = 'position:absolute;top:5%;right:5%;font-size:calc(18px + 6 * ((100vw - 320px) / 680))'></div>
  ","""","""","""","""","""","""","""","""","""","2021-05-05 15:23:50",182.78.211.150,"Mozilla/5.0 (Windows NT 10.0; Win64; x64) AppleWebKit/537.36 (KHTML, like Gecko) Chrome/90.0.4430.93 Safari/537.36",WebKit,Chrome,90.0.4430.93,Windows,10.0
63,1,null,null,html-keyboard-response,127,193920,0.0-127.0,IwAR16pyVodBZIYU6HmXdJxwZ-ZzbfrFCyK_TIvHb2-yMuU9cV2mq6K5yuG7c,"
    <img id = 'img_b1' width = 18% height = 32% style = 'position:absolute;top:10%;left:25%'>
    <img id = 'img_b2' width = 18% height = 32% style = 'position:absolute;top:10%;right:25%'>
    <img id = 'img_b3' width = 18% height = 32% style = 'position:absolute;bottom:10%;left:25%'>
    <img id = 'img_b4' width = 18% height = 32% style = 'position:absolute;bottom:10%;right:25%'>
    <div id = 'band_txt'></div>
    <div id = 'cum' style = 'position:absolute;top:5%;right:5%;font-size:calc(18px + 6 * ((100vw - 320px) / 680))'></div>
  ","""","""","""","""","""","""","""","""","""","2021-05-05 15:23:50",182.78.211.150,"Mozilla/5.0 (Windows NT 10.0; Win64; x64) AppleWebKit/537.36 (KHTML, like Gecko) Chrome/90.0.4430.93 Safari/537.36",WebKit,Chrome,90.0.4430.93,Windows,10.0
63,1,null,null,html-keyboard-response,128,195679,0.0-128.0,IwAR16pyVodBZIYU6HmXdJxwZ-ZzbfrFCyK_TIvHb2-yMuU9cV2mq6K5yuG7c,"<div style=""font-size:60px;"">+</div>","""","""","""","""","""","""","""","""","""","2021-05-05 15:23:50",182.78.211.150,"Mozilla/5.0 (Windows NT 10.0; Win64; x64) AppleWebKit/537.36 (KHTML, like Gecko) Chrome/90.0.4430.93 Safari/537.36",WebKit,Chrome,90.0.4430.93,Windows,10.0
63,1,619.21999999322,z,html-keyboard-response,129,196299,0.0-129.0,IwAR16pyVodBZIYU6HmXdJxwZ-ZzbfrFCyK_TIvHb2-yMuU9cV2mq6K5yuG7c,"
    <img id = 'img_b1' width = 18% height = 32% style = 'position:absolute;top:10%;left:25%'>
    <img id = 'img_b2' width = 18% height = 32% style = 'position:absolute;top:10%;right:25%'>
    <img id = 'img_b3' width = 18% height = 32% style = 'position:absolute;bottom:10%;left:25%'>
    <img id = 'img_b4' width = 18% height = 32% style = 'position:absolute;bottom:10%;right:25%'>
    <div id = 'cum' style = 'position:absolute;top:5%;right:5%;font-size:calc(18px + 6 * ((100vw - 320px) / 680))'></div>
  ","""","""","""","""","""","""","""","""","""","2021-05-05 15:23:50",182.78.211.150,"Mozilla/5.0 (Windows NT 10.0; Win64; x64) AppleWebKit/537.36 (KHTML, like Gecko) Chrome/90.0.4430.93 Safari/537.36",WebKit,Chrome,90.0.4430.93,Windows,10.0
63,1,null,null,html-keyboard-response,130,197813,0.0-130.0,IwAR16pyVodBZIYU6HmXdJxwZ-ZzbfrFCyK_TIvHb2-yMuU9cV2mq6K5yuG7c,"
    <img id = 'img_b1' width = 18% height = 32% style = 'position:absolute;top:10%;left:25%'>
    <img id = 'img_b2' width = 18% height = 32% style = 'position:absolute;top:10%;right:25%'>
    <img id = 'img_b3' width = 18% height = 32% style = 'position:absolute;bottom:10%;left:25%'>
    <img id = 'img_b4' width = 18% height = 32% style = 'position:absolute;bottom:10%;right:25%'>
    <div id = 'band_txt'></div>
    <div id = 'cum' style = 'position:absolute;top:5%;right:5%;font-size:calc(18px + 6 * ((100vw - 320px) / 680))'></div>
  ","""","""","""","""","""","""","""","""","""","2021-05-05 15:23:50",182.78.211.150,"Mozilla/5.0 (Windows NT 10.0; Win64; x64) AppleWebKit/537.36 (KHTML, like Gecko) Chrome/90.0.4430.93 Safari/537.36",WebKit,Chrome,90.0.4430.93,Windows,10.0
63,1,null,null,html-keyboard-response,131,199580,0.0-131.0,IwAR16pyVodBZIYU6HmXdJxwZ-ZzbfrFCyK_TIvHb2-yMuU9cV2mq6K5yuG7c,"<div style=""font-size:60px;"">+</div>","""","""","""","""","""","""","""","""","""","2021-05-05 15:23:50",182.78.211.150,"Mozilla/5.0 (Windows NT 10.0; Win64; x64) AppleWebKit/537.36 (KHTML, like Gecko) Chrome/90.0.4430.93 Safari/537.36",WebKit,Chrome,90.0.4430.93,Windows,10.0
63,1,824.750000028871,z,html-keyboard-response,132,200405,0.0-132.0,IwAR16pyVodBZIYU6HmXdJxwZ-ZzbfrFCyK_TIvHb2-yMuU9cV2mq6K5yuG7c,"
    <img id = 'img_b1' width = 18% height = 32% style = 'position:absolute;top:10%;left:25%'>
    <img id = 'img_b2' width = 18% height = 32% style = 'position:absolute;top:10%;right:25%'>
    <img id = 'img_b3' width = 18% height = 32% style = 'position:absolute;bottom:10%;left:25%'>
    <img id = 'img_b4' width = 18% height = 32% style = 'position:absolute;bottom:10%;right:25%'>
    <div id = 'cum' style = 'position:absolute;top:5%;right:5%;font-size:calc(18px + 6 * ((100vw - 320px) / 680))'></div>
  ","""","""","""","""","""","""","""","""","""","2021-05-05 15:23:50",182.78.211.150,"Mozilla/5.0 (Windows NT 10.0; Win64; x64) AppleWebKit/537.36 (KHTML, like Gecko) Chrome/90.0.4430.93 Safari/537.36",WebKit,Chrome,90.0.4430.93,Windows,10.0
63,1,null,null,html-keyboard-response,133,201922,0.0-133.0,IwAR16pyVodBZIYU6HmXdJxwZ-ZzbfrFCyK_TIvHb2-yMuU9cV2mq6K5yuG7c,"
    <img id = 'img_b1' width = 18% height = 32% style = 'position:absolute;top:10%;left:25%'>
    <img id = 'img_b2' width = 18% height = 32% style = 'position:absolute;top:10%;right:25%'>
    <img id = 'img_b3' width = 18% height = 32% style = 'position:absolute;bottom:10%;left:25%'>
    <img id = 'img_b4' width = 18% height = 32% style = 'position:absolute;bottom:10%;right:25%'>
    <div id = 'band_txt'></div>
    <div id = 'cum' style = 'position:absolute;top:5%;right:5%;font-size:calc(18px + 6 * ((100vw - 320px) / 680))'></div>
  ","""","""","""","""","""","""","""","""","""","2021-05-05 15:23:50",182.78.211.150,"Mozilla/5.0 (Windows NT 10.0; Win64; x64) AppleWebKit/537.36 (KHTML, like Gecko) Chrome/90.0.4430.93 Safari/537.36",WebKit,Chrome,90.0.4430.93,Windows,10.0
63,1,null,null,html-keyboard-response,134,203433,0.0-134.0,IwAR16pyVodBZIYU6HmXdJxwZ-ZzbfrFCyK_TIvHb2-yMuU9cV2mq6K5yuG7c,"<div style=""font-size:60px;"">+</div>","""","""","""","""","""","""","""","""","""","2021-05-05 15:23:50",182.78.211.150,"Mozilla/5.0 (Windows NT 10.0; Win64; x64) AppleWebKit/537.36 (KHTML, like Gecko) Chrome/90.0.4430.93 Safari/537.36",WebKit,Chrome,90.0.4430.93,Windows,10.0
63,1,3287.4050000100397,z,html-keyboard-response,135,206721,0.0-135.0,IwAR16pyVodBZIYU6HmXdJxwZ-ZzbfrFCyK_TIvHb2-yMuU9cV2mq6K5yuG7c,"
    <img id = 'img_b1' width = 18% height = 32% style = 'position:absolute;top:10%;left:25%'>
    <img id = 'img_b2' width = 18% height = 32% style = 'position:absolute;top:10%;right:25%'>
    <img id = 'img_b3' width = 18% height = 32% style = 'position:absolute;bottom:10%;left:25%'>
    <img id = 'img_b4' width = 18% height = 32% style = 'position:absolute;bottom:10%;right:25%'>
    <div id = 'cum' style = 'position:absolute;top:5%;right:5%;font-size:calc(18px + 6 * ((100vw - 320px) / 680))'></div>
  ","""","""","""","""","""","""","""","""","""","2021-05-05 15:23:50",182.78.211.150,"Mozilla/5.0 (Windows NT 10.0; Win64; x64) AppleWebKit/537.36 (KHTML, like Gecko) Chrome/90.0.4430.93 Safari/537.36",WebKit,Chrome,90.0.4430.93,Windows,10.0
63,1,null,null,html-keyboard-response,136,208237,0.0-136.0,IwAR16pyVodBZIYU6HmXdJxwZ-ZzbfrFCyK_TIvHb2-yMuU9cV2mq6K5yuG7c,"
    <img id = 'img_b1' width = 18% height = 32% style = 'position:absolute;top:10%;left:25%'>
    <img id = 'img_b2' width = 18% height = 32% style = 'position:absolute;top:10%;right:25%'>
    <img id = 'img_b3' width = 18% height = 32% style = 'position:absolute;bottom:10%;left:25%'>
    <img id = 'img_b4' width = 18% height = 32% style = 'position:absolute;bottom:10%;right:25%'>
    <div id = 'band_txt'></div>
    <div id = 'cum' style = 'position:absolute;top:5%;right:5%;font-size:calc(18px + 6 * ((100vw - 320px) / 680))'></div>
