run_id,condition,rt,response,trial_type,trial_index,time_elapsed,internal_node_id,fbclid,stimulus,trend,stable,num,resp_map,success,timeout,failed_images,failed_audio,failed_video,recorded_at,ip,user_agent,device,browser,browser_version,platform,platform_version
73,1,14805.614999961108,"{""age"":""20"",""sex"":""Female"",""hand"":""Right""}",survey-text,0,15003,0.0-0.0,IwAR2pJTeDT4DB71RN69Vwx4iCv9FdPbZVZH7ZII6w7T5KWhtH_EUPesQFJnM,"""","""","""","""","""","""","""","""","""","""","2021-05-05 18:31:23",106.207.218.136,"Mozilla/5.0 (Windows NT 10.0; Win64; x64) AppleWebKit/537.36 (KHTML, like Gecko) Chrome/89.0.4389.128 Safari/537.36",WebKit,Chrome,89.0.4389.128,Windows,10.0
73,1,2207.949999952689," ",html-keyboard-response,1,17226,0.0-1.0,IwAR2pJTeDT4DB71RN69Vwx4iCv9FdPbZVZH7ZII6w7T5KWhtH_EUPesQFJnM,"Hi! Thanks for volunteering for this study. It is part of the project component for the course, CS786A - Computational Cognitive Science, at IIT Kanpur.<br> You will now play a decision-making game lasting for 15-20 minutes. In case of any queries, please write to prathams@iitk.ac.in or call at 9760066853.<br><br>Press any key to continue!",0,1,0,"[3,0,2,1]","""","""","""","""","""","2021-05-05 18:31:23",106.207.218.136,"Mozilla/5.0 (Windows NT 10.0; Win64; x64) AppleWebKit/537.36 (KHTML, like Gecko) Chrome/89.0.4389.128 Safari/537.36",WebKit,Chrome,89.0.4389.128,Windows,10.0
73,1,26033.8950001169,enter,html-keyboard-response,2,43264,0.0-2.0,IwAR2pJTeDT4DB71RN69Vwx4iCv9FdPbZVZH7ZII6w7T5KWhtH_EUPesQFJnM,"Imagine you are in a casino, and you go to a room with four slot machines. On pulling a machine, it yeilds a reward. At any point, some machines may be better than the others, but the amount they give varies. Your aim is to maximize your cumulative reward by the end of this experiment. <br>Machines are pulled by pressing 'Q', 'P', 'M' or 'Z' on the keyboard. These keys are arranged in the same way on the keyboard as the slot machines are on the screen.<br>Press any button to see an illustration of the trial screen and the keyboard mapping!","""","""","""","""","""","""","""","""","""","2021-05-05 18:31:23",106.207.218.136,"Mozilla/5.0 (Windows NT 10.0; Win64; x64) AppleWebKit/537.36 (KHTML, like Gecko) Chrome/89.0.4389.128 Safari/537.36",WebKit,Chrome,89.0.4389.128,Windows,10.0
73,1,"""","""",preload,3,45254,0.0-3.0,IwAR2pJTeDT4DB71RN69Vwx4iCv9FdPbZVZH7ZII6w7T5KWhtH_EUPesQFJnM,"""","""","""","""","""",true,false,[],[],[],"2021-05-05 18:31:23",106.207.218.136,"Mozilla/5.0 (Windows NT 10.0; Win64; x64) AppleWebKit/537.36 (KHTML, like Gecko) Chrome/89.0.4389.128 Safari/537.36",WebKit,Chrome,89.0.4389.128,Windows,10.0
73,1,3439.604999963194,q,html-keyboard-response,4,48698,0.0-4.0,IwAR2pJTeDT4DB71RN69Vwx4iCv9FdPbZVZH7ZII6w7T5KWhtH_EUPesQFJnM,"
    <img src = 'img/b1.png' width = 18% height = 32% style = 'position:absolute;top:10%;left:25%'>
    <img src = 'img/b2.png' width = 18% height = 32% style = 'position:absolute;top:10%;right:25%'>
    <img src = 'img/b3.png' width = 18% height = 32% style = 'position:absolute;bottom:10%;left:25%'>
    <img src = 'img/b4.png' width = 18% height = 32% style = 'position:absolute;bottom:10%;right:25%'>
    <div id = 'cum' style = 'position:absolute;top:5%;right:5%;font-size:calc(18px + 6 * ((100vw - 320px) / 680))'>Total</div>
    <div style = 'position:absolute;top:20%;left:30%;color:black;font-size:calc(18px + 6 * ((100vw - 320px) / 680))'>Q</div>
    <div style = 'position:absolute;top:20%;right:35%;color:black;font-size:calc(18px + 6 * ((100vw - 320px) / 680))'>P</div>
    <div style = 'position:absolute;bottom:26%;right:35%;color:black;font-size:calc(18px + 6 * ((100vw - 320px) / 680))'>M</div>
    <div style = 'position:absolute;bottom:26%;left:30%;color:black;font-size:calc(18px + 6 * ((100vw - 320px) / 680))'>Z</div>
    <div style = 'position:absolute;bottom:5%;left:30%'>Press any button to proceed to the experiment!</div>
  ","""","""","""","""","""","""","""","""","""","2021-05-05 18:31:23",106.207.218.136,"Mozilla/5.0 (Windows NT 10.0; Win64; x64) AppleWebKit/537.36 (KHTML, like Gecko) Chrome/89.0.4389.128 Safari/537.36",WebKit,Chrome,89.0.4389.128,Windows,10.0
73,1,null,null,html-keyboard-response,5,50467,0.0-5.0,IwAR2pJTeDT4DB71RN69Vwx4iCv9FdPbZVZH7ZII6w7T5KWhtH_EUPesQFJnM,"<div style=""font-size:60px;"">+</div>","""","""","""","""","""","""","""","""","""","2021-05-05 18:31:23",106.207.218.136,"Mozilla/5.0 (Windows NT 10.0; Win64; x64) AppleWebKit/537.36 (KHTML, like Gecko) Chrome/89.0.4389.128 Safari/537.36",WebKit,Chrome,89.0.4389.128,Windows,10.0
73,1,9849.53000000678,p,html-keyboard-response,6,60322,0.0-6.0,IwAR2pJTeDT4DB71RN69Vwx4iCv9FdPbZVZH7ZII6w7T5KWhtH_EUPesQFJnM,"
    <img id = 'img_b1' width = 18% height = 32% style = 'position:absolute;top:10%;left:25%'>
    <img id = 'img_b2' width = 18% height = 32% style = 'position:absolute;top:10%;right:25%'>
    <img id = 'img_b3' width = 18% height = 32% style = 'position:absolute;bottom:10%;left:25%'>
    <img id = 'img_b4' width = 18% height = 32% style = 'position:absolute;bottom:10%;right:25%'>
    <div id = 'cum' style = 'position:absolute;top:5%;right:5%;font-size:calc(18px + 6 * ((100vw - 320px) / 680))'></div>
  ","""","""","""","""","""","""","""","""","""","2021-05-05 18:31:23",106.207.218.136,"Mozilla/5.0 (Windows NT 10.0; Win64; x64) AppleWebKit/537.36 (KHTML, like Gecko) Chrome/89.0.4389.128 Safari/537.36",WebKit,Chrome,89.0.4389.128,Windows,10.0
73,1,null,null,html-keyboard-response,7,61832,0.0-7.0,IwAR2pJTeDT4DB71RN69Vwx4iCv9FdPbZVZH7ZII6w7T5KWhtH_EUPesQFJnM,"
    <img id = 'img_b1' width = 18% height = 32% style = 'position:absolute;top:10%;left:25%'>
    <img id = 'img_b2' width = 18% height = 32% style = 'position:absolute;top:10%;right:25%'>
    <img id = 'img_b3' width = 18% height = 32% style = 'position:absolute;bottom:10%;left:25%'>
    <img id = 'img_b4' width = 18% height = 32% style = 'position:absolute;bottom:10%;right:25%'>
    <div id = 'band_txt'></div>
    <div id = 'cum' style = 'position:absolute;top:5%;right:5%;font-size:calc(18px + 6 * ((100vw - 320px) / 680))'></div>
  ","""","""","""","""","""","""","""","""","""","2021-05-05 18:31:23",106.207.218.136,"Mozilla/5.0 (Windows NT 10.0; Win64; x64) AppleWebKit/537.36 (KHTML, like Gecko) Chrome/89.0.4389.128 Safari/537.36",WebKit,Chrome,89.0.4389.128,Windows,10.0
73,1,null,null,html-keyboard-response,8,63087,0.0-8.0,IwAR2pJTeDT4DB71RN69Vwx4iCv9FdPbZVZH7ZII6w7T5KWhtH_EUPesQFJnM,"<div style=""font-size:60px;"">+</div>","""","""","""","""","""","""","""","""","""","2021-05-05 18:31:23",106.207.218.136,"Mozilla/5.0 (Windows NT 10.0; Win64; x64) AppleWebKit/537.36 (KHTML, like Gecko) Chrome/89.0.4389.128 Safari/537.36",WebKit,Chrome,89.0.4389.128,Windows,10.0
73,1,4026.079999981448,m,html-keyboard-response,9,67115,0.0-9.0,IwAR2pJTeDT4DB71RN69Vwx4iCv9FdPbZVZH7ZII6w7T5KWhtH_EUPesQFJnM,"
    <img id = 'img_b1' width = 18% height = 32% style = 'position:absolute;top:10%;left:25%'>
    <img id = 'img_b2' width = 18% height = 32% style = 'position:absolute;top:10%;right:25%'>
    <img id = 'img_b3' width = 18% height = 32% style = 'position:absolute;bottom:10%;left:25%'>
    <img id = 'img_b4' width = 18% height = 32% style = 'position:absolute;bottom:10%;right:25%'>
    <div id = 'cum' style = 'position:absolute;top:5%;right:5%;font-size:calc(18px + 6 * ((100vw - 320px) / 680))'></div>
  ","""","""","""","""","""","""","""","""","""","2021-05-05 18:31:23",106.207.218.136,"Mozilla/5.0 (Windows NT 10.0; Win64; x64) AppleWebKit/537.36 (KHTML, like Gecko) Chrome/89.0.4389.128 Safari/537.36",WebKit,Chrome,89.0.4389.128,Windows,10.0
73,1,null,null,html-keyboard-response,10,68628,0.0-10.0,IwAR2pJTeDT4DB71RN69Vwx4iCv9FdPbZVZH7ZII6w7T5KWhtH_EUPesQFJnM,"
    <img id = 'img_b1' width = 18% height = 32% style = 'position:absolute;top:10%;left:25%'>
    <img id = 'img_b2' width = 18% height = 32% style = 'position:absolute;top:10%;right:25%'>
    <img id = 'img_b3' width = 18% height = 32% style = 'position:absolute;bottom:10%;left:25%'>
    <img id = 'img_b4' width = 18% height = 32% style = 'position:absolute;bottom:10%;right:25%'>
    <div id = 'band_txt'></div>
    <div id = 'cum' style = 'position:absolute;top:5%;right:5%;font-size:calc(18px + 6 * ((100vw - 320px) / 680))'></div>
  ","""","""","""","""","""","""","""","""","""","2021-05-05 18:31:23",106.207.218.136,"Mozilla/5.0 (Windows NT 10.0; Win64; x64) AppleWebKit/537.36 (KHTML, like Gecko) Chrome/89.0.4389.128 Safari/537.36",WebKit,Chrome,89.0.4389.128,Windows,10.0
73,1,null,null,html-keyboard-response,11,69639,0.0-11.0,IwAR2pJTeDT4DB71RN69Vwx4iCv9FdPbZVZH7ZII6w7T5KWhtH_EUPesQFJnM,"<div style=""font-size:60px;"">+</div>","""","""","""","""","""","""","""","""","""","2021-05-05 18:31:23",106.207.218.136,"Mozilla/5.0 (Windows NT 10.0; Win64; x64) AppleWebKit/537.36 (KHTML, like Gecko) Chrome/89.0.4389.128 Safari/537.36",WebKit,Chrome,89.0.4389.128,Windows,10.0
73,1,442.9949999321252,m,html-keyboard-response,12,70086,0.0-12.0,IwAR2pJTeDT4DB71RN69Vwx4iCv9FdPbZVZH7ZII6w7T5KWhtH_EUPesQFJnM,"
    <img id = 'img_b1' width = 18% height = 32% style = 'position:absolute;top:10%;left:25%'>
    <img id = 'img_b2' width = 18% height = 32% style = 'position:absolute;top:10%;right:25%'>
    <img id = 'img_b3' width = 18% height = 32% style = 'position:absolute;bottom:10%;left:25%'>
    <img id = 'img_b4' width = 18% height = 32% style = 'position:absolute;bottom:10%;right:25%'>
    <div id = 'cum' style = 'position:absolute;top:5%;right:5%;font-size:calc(18px + 6 * ((100vw - 320px) / 680))'></div>
  ","""","""","""","""","""","""","""","""","""","2021-05-05 18:31:23",106.207.218.136,"Mozilla/5.0 (Windows NT 10.0; Win64; x64) AppleWebKit/537.36 (KHTML, like Gecko) Chrome/89.0.4389.128 Safari/537.36",WebKit,Chrome,89.0.4389.128,Windows,10.0
73,1,null,null,html-keyboard-response,13,71591,0.0-13.0,IwAR2pJTeDT4DB71RN69Vwx4iCv9FdPbZVZH7ZII6w7T5KWhtH_EUPesQFJnM,"
    <img id = 'img_b1' width = 18% height = 32% style = 'position:absolute;top:10%;left:25%'>
    <img id = 'img_b2' width = 18% height = 32% style = 'position:absolute;top:10%;right:25%'>
    <img id = 'img_b3' width = 18% height = 32% style = 'position:absolute;bottom:10%;left:25%'>
    <img id = 'img_b4' width = 18% height = 32% style = 'position:absolute;bottom:10%;right:25%'>
    <div id = 'band_txt'></div>
    <div id = 'cum' style = 'position:absolute;top:5%;right:5%;font-size:calc(18px + 6 * ((100vw - 320px) / 680))'></div>
  ","""","""","""","""","""","""","""","""","""","2021-05-05 18:31:23",106.207.218.136,"Mozilla/5.0 (Windows NT 10.0; Win64; x64) AppleWebKit/537.36 (KHTML, like Gecko) Chrome/89.0.4389.128 Safari/537.36",WebKit,Chrome,89.0.4389.128,Windows,10.0
73,1,null,null,html-keyboard-response,14,73355,0.0-14.0,IwAR2pJTeDT4DB71RN69Vwx4iCv9FdPbZVZH7ZII6w7T5KWhtH_EUPesQFJnM,"<div style=""font-size:60px;"">+</div>","""","""","""","""","""","""","""","""","""","2021-05-05 18:31:23",106.207.218.136,"Mozilla/5.0 (Windows NT 10.0; Win64; x64) AppleWebKit/537.36 (KHTML, like Gecko) Chrome/89.0.4389.128 Safari/537.36",WebKit,Chrome,89.0.4389.128,Windows,10.0
73,1,431.0750002041459,m,html-keyboard-response,15,73790,0.0-15.0,IwAR2pJTeDT4DB71RN69Vwx4iCv9FdPbZVZH7ZII6w7T5KWhtH_EUPesQFJnM,"
    <img id = 'img_b1' width = 18% height = 32% style = 'position:absolute;top:10%;left:25%'>
    <img id = 'img_b2' width = 18% height = 32% style = 'position:absolute;top:10%;right:25%'>
    <img id = 'img_b3' width = 18% height = 32% style = 'position:absolute;bottom:10%;left:25%'>
    <img id = 'img_b4' width = 18% height = 32% style = 'position:absolute;bottom:10%;right:25%'>
    <div id = 'cum' style = 'position:absolute;top:5%;right:5%;font-size:calc(18px + 6 * ((100vw - 320px) / 680))'></div>
  ","""","""","""","""","""","""","""","""","""","2021-05-05 18:31:23",106.207.218.136,"Mozilla/5.0 (Windows NT 10.0; Win64; x64) AppleWebKit/537.36 (KHTML, like Gecko) Chrome/89.0.4389.128 Safari/537.36",WebKit,Chrome,89.0.4389.128,Windows,10.0
73,1,null,null,html-keyboard-response,16,75305,0.0-16.0,IwAR2pJTeDT4DB71RN69Vwx4iCv9FdPbZVZH7ZII6w7T5KWhtH_EUPesQFJnM,"
    <img id = 'img_b1' width = 18% height = 32% style = 'position:absolute;top:10%;left:25%'>
    <img id = 'img_b2' width = 18% height = 32% style = 'position:absolute;top:10%;right:25%'>
    <img id = 'img_b3' width = 18% height = 32% style = 'position:absolute;bottom:10%;left:25%'>
    <img id = 'img_b4' width = 18% height = 32% style = 'position:absolute;bottom:10%;right:25%'>
    <div id = 'band_txt'></div>
    <div id = 'cum' style = 'position:absolute;top:5%;right:5%;font-size:calc(18px + 6 * ((100vw - 320px) / 680))'></div>
  ","""","""","""","""","""","""","""","""","""","2021-05-05 18:31:23",106.207.218.136,"Mozilla/5.0 (Windows NT 10.0; Win64; x64) AppleWebKit/537.36 (KHTML, like Gecko) Chrome/89.0.4389.128 Safari/537.36",WebKit,Chrome,89.0.4389.128,Windows,10.0
73,1,null,null,html-keyboard-response,17,76313,0.0-17.0,IwAR2pJTeDT4DB71RN69Vwx4iCv9FdPbZVZH7ZII6w7T5KWhtH_EUPesQFJnM,"<div style=""font-size:60px;"">+</div>","""","""","""","""","""","""","""","""","""","2021-05-05 18:31:23",106.207.218.136,"Mozilla/5.0 (Windows NT 10.0; Win64; x64) AppleWebKit/537.36 (KHTML, like Gecko) Chrome/89.0.4389.128 Safari/537.36",WebKit,Chrome,89.0.4389.128,Windows,10.0
73,1,375.55999984033406,z,html-keyboard-response,18,76691,0.0-18.0,IwAR2pJTeDT4DB71RN69Vwx4iCv9FdPbZVZH7ZII6w7T5KWhtH_EUPesQFJnM,"
    <img id = 'img_b1' width = 18% height = 32% style = 'position:absolute;top:10%;left:25%'>
    <img id = 'img_b2' width = 18% height = 32% style = 'position:absolute;top:10%;right:25%'>
    <img id = 'img_b3' width = 18% height = 32% style = 'position:absolute;bottom:10%;left:25%'>
    <img id = 'img_b4' width = 18% height = 32% style = 'position:absolute;bottom:10%;right:25%'>
    <div id = 'cum' style = 'position:absolute;top:5%;right:5%;font-size:calc(18px + 6 * ((100vw - 320px) / 680))'></div>
  ","""","""","""","""","""","""","""","""","""","2021-05-05 18:31:23",106.207.218.136,"Mozilla/5.0 (Windows NT 10.0; Win64; x64) AppleWebKit/537.36 (KHTML, like Gecko) Chrome/89.0.4389.128 Safari/537.36",WebKit,Chrome,89.0.4389.128,Windows,10.0
73,1,null,null,html-keyboard-response,19,78207,0.0-19.0,IwAR2pJTeDT4DB71RN69Vwx4iCv9FdPbZVZH7ZII6w7T5KWhtH_EUPesQFJnM,"
    <img id = 'img_b1' width = 18% height = 32% style = 'position:absolute;top:10%;left:25%'>
    <img id = 'img_b2' width = 18% height = 32% style = 'position:absolute;top:10%;right:25%'>
    <img id = 'img_b3' width = 18% height = 32% style = 'position:absolute;bottom:10%;left:25%'>
    <img id = 'img_b4' width = 18% height = 32% style = 'position:absolute;bottom:10%;right:25%'>
    <div id = 'band_txt'></div>
    <div id = 'cum' style = 'position:absolute;top:5%;right:5%;font-size:calc(18px + 6 * ((100vw - 320px) / 680))'></div>
  ","""","""","""","""","""","""","""","""","""","2021-05-05 18:31:23",106.207.218.136,"Mozilla/5.0 (Windows NT 10.0; Win64; x64) AppleWebKit/537.36 (KHTML, like Gecko) Chrome/89.0.4389.128 Safari/537.36",WebKit,Chrome,89.0.4389.128,Windows,10.0
73,1,null,null,html-keyboard-response,20,78964,0.0-20.0,IwAR2pJTeDT4DB71RN69Vwx4iCv9FdPbZVZH7ZII6w7T5KWhtH_EUPesQFJnM,"<div style=""font-size:60px;"">+</div>","""","""","""","""","""","""","""","""","""","2021-05-05 18:31:23",106.207.218.136,"Mozilla/5.0 (Windows NT 10.0; Win64; x64) AppleWebKit/537.36 (KHTML, like Gecko) Chrome/89.0.4389.128 Safari/537.36",WebKit,Chrome,89.0.4389.128,Windows,10.0
73,1,356.679999968037,p,html-keyboard-response,21,79327,0.0-21.0,IwAR2pJTeDT4DB71RN69Vwx4iCv9FdPbZVZH7ZII6w7T5KWhtH_EUPesQFJnM,"
    <img id = 'img_b1' width = 18% height = 32% style = 'position:absolute;top:10%;left:25%'>
    <img id = 'img_b2' width = 18% height = 32% style = 'position:absolute;top:10%;right:25%'>
    <img id = 'img_b3' width = 18% height = 32% style = 'position:absolute;bottom:10%;left:25%'>
    <img id = 'img_b4' width = 18% height = 32% style = 'position:absolute;bottom:10%;right:25%'>
    <div id = 'cum' style = 'position:absolute;top:5%;right:5%;font-size:calc(18px + 6 * ((100vw - 320px) / 680))'></div>
  ","""","""","""","""","""","""","""","""","""","2021-05-05 18:31:23",106.207.218.136,"Mozilla/5.0 (Windows NT 10.0; Win64; x64) AppleWebKit/537.36 (KHTML, like Gecko) Chrome/89.0.4389.128 Safari/537.36",WebKit,Chrome,89.0.4389.128,Windows,10.0
73,1,null,null,html-keyboard-response,22,80831,0.0-22.0,IwAR2pJTeDT4DB71RN69Vwx4iCv9FdPbZVZH7ZII6w7T5KWhtH_EUPesQFJnM,"
    <img id = 'img_b1' width = 18% height = 32% style = 'position:absolute;top:10%;left:25%'>
    <img id = 'img_b2' width = 18% height = 32% style = 'position:absolute;top:10%;right:25%'>
    <img id = 'img_b3' width = 18% height = 32% style = 'position:absolute;bottom:10%;left:25%'>
    <img id = 'img_b4' width = 18% height = 32% style = 'position:absolute;bottom:10%;right:25%'>
    <div id = 'band_txt'></div>
    <div id = 'cum' style = 'position:absolute;top:5%;right:5%;font-size:calc(18px + 6 * ((100vw - 320px) / 680))'></div>
  ","""","""","""","""","""","""","""","""","""","2021-05-05 18:31:23",106.207.218.136,"Mozilla/5.0 (Windows NT 10.0; Win64; x64) AppleWebKit/537.36 (KHTML, like Gecko) Chrome/89.0.4389.128 Safari/537.36",WebKit,Chrome,89.0.4389.128,Windows,10.0
73,1,null,null,html-keyboard-response,23,81592,0.0-23.0,IwAR2pJTeDT4DB71RN69Vwx4iCv9FdPbZVZH7ZII6w7T5KWhtH_EUPesQFJnM,"<div style=""font-size:60px;"">+</div>","""","""","""","""","""","""","""","""","""","2021-05-05 18:31:23",106.207.218.136,"Mozilla/5.0 (Windows NT 10.0; Win64; x64) AppleWebKit/537.36 (KHTML, like Gecko) Chrome/89.0.4389.128 Safari/537.36",WebKit,Chrome,89.0.4389.128,Windows,10.0
73,1,373.35500004701316,q,html-keyboard-response,24,81967,0.0-24.0,IwAR2pJTeDT4DB71RN69Vwx4iCv9FdPbZVZH7ZII6w7T5KWhtH_EUPesQFJnM,"
    <img id = 'img_b1' width = 18% height = 32% style = 'position:absolute;top:10%;left:25%'>
    <img id = 'img_b2' width = 18% height = 32% style = 'position:absolute;top:10%;right:25%'>
    <img id = 'img_b3' width = 18% height = 32% style = 'position:absolute;bottom:10%;left:25%'>
    <img id = 'img_b4' width = 18% height = 32% style = 'position:absolute;bottom:10%;right:25%'>
    <div id = 'cum' style = 'position:absolute;top:5%;right:5%;font-size:calc(18px + 6 * ((100vw - 320px) / 680))'></div>
  ","""","""","""","""","""","""","""","""","""","2021-05-05 18:31:23",106.207.218.136,"Mozilla/5.0 (Windows NT 10.0; Win64; x64) AppleWebKit/537.36 (KHTML, like Gecko) Chrome/89.0.4389.128 Safari/537.36",WebKit,Chrome,89.0.4389.128,Windows,10.0
73,1,null,null,html-keyboard-response,25,83477,0.0-25.0,IwAR2pJTeDT4DB71RN69Vwx4iCv9FdPbZVZH7ZII6w7T5KWhtH_EUPesQFJnM,"
    <img id = 'img_b1' width = 18% height = 32% style = 'position:absolute;top:10%;left:25%'>
    <img id = 'img_b2' width = 18% height = 32% style = 'position:absolute;top:10%;right:25%'>
    <img id = 'img_b3' width = 18% height = 32% style = 'position:absolute;bottom:10%;left:25%'>
    <img id = 'img_b4' width = 18% height = 32% style = 'position:absolute;bottom:10%;right:25%'>
    <div id = 'band_txt'></div>
    <div id = 'cum' style = 'position:absolute;top:5%;right:5%;font-size:calc(18px + 6 * ((100vw - 320px) / 680))'></div>
  ","""","""","""","""","""","""","""","""","""","2021-05-05 18:31:23",106.207.218.136,"Mozilla/5.0 (Windows NT 10.0; Win64; x64) AppleWebKit/537.36 (KHTML, like Gecko) Chrome/89.0.4389.128 Safari/537.36",WebKit,Chrome,89.0.4389.128,Windows,10.0
73,1,null,null,html-keyboard-response,26,85243,0.0-26.0,IwAR2pJTeDT4DB71RN69Vwx4iCv9FdPbZVZH7ZII6w7T5KWhtH_EUPesQFJnM,"<div style=""font-size:60px;"">+</div>","""","""","""","""","""","""","""","""","""","2021-05-05 18:31:23",106.207.218.136,"Mozilla/5.0 (Windows NT 10.0; Win64; x64) AppleWebKit/537.36 (KHTML, like Gecko) Chrome/89.0.4389.128 Safari/537.36",WebKit,Chrome,89.0.4389.128,Windows,10.0
73,1,351.7100000753999,q,html-keyboard-response,27,85600,0.0-27.0,IwAR2pJTeDT4DB71RN69Vwx4iCv9FdPbZVZH7ZII6w7T5KWhtH_EUPesQFJnM,"
    <img id = 'img_b1' width = 18% height = 32% style = 'position:absolute;top:10%;left:25%'>
    <img id = 'img_b2' width = 18% height = 32% style = 'position:absolute;top:10%;right:25%'>
    <img id = 'img_b3' width = 18% height = 32% style = 'position:absolute;bottom:10%;left:25%'>
    <img id = 'img_b4' width = 18% height = 32% style = 'position:absolute;bottom:10%;right:25%'>
    <div id = 'cum' style = 'position:absolute;top:5%;right:5%;font-size:calc(18px + 6 * ((100vw - 320px) / 680))'></div>
  ","""","""","""","""","""","""","""","""","""","2021-05-05 18:31:23",106.207.218.136,"Mozilla/5.0 (Windows NT 10.0; Win64; x64) AppleWebKit/537.36 (KHTML, like Gecko) Chrome/89.0.4389.128 Safari/537.36",WebKit,Chrome,89.0.4389.128,Windows,10.0
73,1,null,null,html-keyboard-response,28,87106,0.0-28.0,IwAR2pJTeDT4DB71RN69Vwx4iCv9FdPbZVZH7ZII6w7T5KWhtH_EUPesQFJnM,"
    <img id = 'img_b1' width = 18% height = 32% style = 'position:absolute;top:10%;left:25%'>
    <img id = 'img_b2' width = 18% height = 32% style = 'position:absolute;top:10%;right:25%'>
    <img id = 'img_b3' width = 18% height = 32% style = 'position:absolute;bottom:10%;left:25%'>
    <img id = 'img_b4' width = 18% height = 32% style = 'position:absolute;bottom:10%;right:25%'>
    <div id = 'band_txt'></div>
    <div id = 'cum' style = 'position:absolute;top:5%;right:5%;font-size:calc(18px + 6 * ((100vw - 320px) / 680))'></div>
  ","""","""","""","""","""","""","""","""","""","2021-05-05 18:31:23",106.207.218.136,"Mozilla/5.0 (Windows NT 10.0; Win64; x64) AppleWebKit/537.36 (KHTML, like Gecko) Chrome/89.0.4389.128 Safari/537.36",WebKit,Chrome,89.0.4389.128,Windows,10.0
73,1,null,null,html-keyboard-response,29,88864,0.0-29.0,IwAR2pJTeDT4DB71RN69Vwx4iCv9FdPbZVZH7ZII6w7T5KWhtH_EUPesQFJnM,"<div style=""font-size:60px;"">+</div>","""","""","""","""","""","""","""","""","""","2021-05-05 18:31:23",106.207.218.136,"Mozilla/5.0 (Windows NT 10.0; Win64; x64) AppleWebKit/537.36 (KHTML, like Gecko) Chrome/89.0.4389.128 Safari/537.36",WebKit,Chrome,89.0.4389.128,Windows,10.0
73,1,365.44499988667667,q,html-keyboard-response,30,89231,0.0-30.0,IwAR2pJTeDT4DB71RN69Vwx4iCv9FdPbZVZH7ZII6w7T5KWhtH_EUPesQFJnM,"
    <img id = 'img_b1' width = 18% height = 32% style = 'position:absolute;top:10%;left:25%'>
    <img id = 'img_b2' width = 18% height = 32% style = 'position:absolute;top:10%;right:25%'>
    <img id = 'img_b3' width = 18% height = 32% style = 'position:absolute;bottom:10%;left:25%'>
    <img id = 'img_b4' width = 18% height = 32% style = 'position:absolute;bottom:10%;right:25%'>
    <div id = 'cum' style = 'position:absolute;top:5%;right:5%;font-size:calc(18px + 6 * ((100vw - 320px) / 680))'></div>
  ","""","""","""","""","""","""","""","""","""","2021-05-05 18:31:23",106.207.218.136,"Mozilla/5.0 (Windows NT 10.0; Win64; x64) AppleWebKit/537.36 (KHTML, like Gecko) Chrome/89.0.4389.128 Safari/537.36",WebKit,Chrome,89.0.4389.128,Windows,10.0
73,1,null,null,html-keyboard-response,31,90748,0.0-31.0,IwAR2pJTeDT4DB71RN69Vwx4iCv9FdPbZVZH7ZII6w7T5KWhtH_EUPesQFJnM,"
    <img id = 'img_b1' width = 18% height = 32% style = 'position:absolute;top:10%;left:25%'>
    <img id = 'img_b2' width = 18% height = 32% style = 'position:absolute;top:10%;right:25%'>
    <img id = 'img_b3' width = 18% height = 32% style = 'position:absolute;bottom:10%;left:25%'>
    <img id = 'img_b4' width = 18% height = 32% style = 'position:absolute;bottom:10%;right:25%'>
    <div id = 'band_txt'></div>
    <div id = 'cum' style = 'position:absolute;top:5%;right:5%;font-size:calc(18px + 6 * ((100vw - 320px) / 680))'></div>
  ","""","""","""","""","""","""","""","""","""","2021-05-05 18:31:23",106.207.218.136,"Mozilla/5.0 (Windows NT 10.0; Win64; x64) AppleWebKit/537.36 (KHTML, like Gecko) Chrome/89.0.4389.128 Safari/537.36",WebKit,Chrome,89.0.4389.128,Windows,10.0
73,1,null,null,html-keyboard-response,32,92509,0.0-32.0,IwAR2pJTeDT4DB71RN69Vwx4iCv9FdPbZVZH7ZII6w7T5KWhtH_EUPesQFJnM,"<div style=""font-size:60px;"">+</div>","""","""","""","""","""","""","""","""","""","2021-05-05 18:31:23",106.207.218.136,"Mozilla/5.0 (Windows NT 10.0; Win64; x64) AppleWebKit/537.36 (KHTML, like Gecko) Chrome/89.0.4389.128 Safari/537.36",WebKit,Chrome,89.0.4389.128,Windows,10.0
73,1,798.1000000145286,q,html-keyboard-response,33,93309,0.0-33.0,IwAR2pJTeDT4DB71RN69Vwx4iCv9FdPbZVZH7ZII6w7T5KWhtH_EUPesQFJnM,"
    <img id = 'img_b1' width = 18% height = 32% style = 'position:absolute;top:10%;left:25%'>
    <img id = 'img_b2' width = 18% height = 32% style = 'position:absolute;top:10%;right:25%'>
    <img id = 'img_b3' width = 18% height = 32% style = 'position:absolute;bottom:10%;left:25%'>
    <img id = 'img_b4' width = 18% height = 32% style = 'position:absolute;bottom:10%;right:25%'>
    <div id = 'cum' style = 'position:absolute;top:5%;right:5%;font-size:calc(18px + 6 * ((100vw - 320px) / 680))'></div>
  ","""","""","""","""","""","""","""","""","""","2021-05-05 18:31:23",106.207.218.136,"Mozilla/5.0 (Windows NT 10.0; Win64; x64) AppleWebKit/537.36 (KHTML, like Gecko) Chrome/89.0.4389.128 Safari/537.36",WebKit,Chrome,89.0.4389.128,Windows,10.0
73,1,null,null,html-keyboard-response,34,94826,0.0-34.0,IwAR2pJTeDT4DB71RN69Vwx4iCv9FdPbZVZH7ZII6w7T5KWhtH_EUPesQFJnM,"
    <img id = 'img_b1' width = 18% height = 32% style = 'position:absolute;top:10%;left:25%'>
    <img id = 'img_b2' width = 18% height = 32% style = 'position:absolute;top:10%;right:25%'>
    <img id = 'img_b3' width = 18% height = 32% style = 'position:absolute;bottom:10%;left:25%'>
    <img id = 'img_b4' width = 18% height = 32% style = 'position:absolute;bottom:10%;right:25%'>
    <div id = 'band_txt'></div>
    <div id = 'cum' style = 'position:absolute;top:5%;right:5%;font-size:calc(18px + 6 * ((100vw - 320px) / 680))'></div>
  ","""","""","""","""","""","""","""","""","""","2021-05-05 18:31:23",106.207.218.136,"Mozilla/5.0 (Windows NT 10.0; Win64; x64) AppleWebKit/537.36 (KHTML, like Gecko) Chrome/89.0.4389.128 Safari/537.36",WebKit,Chrome,89.0.4389.128,Windows,10.0
73,1,null,null,html-keyboard-response,35,95836,0.0-35.0,IwAR2pJTeDT4DB71RN69Vwx4iCv9FdPbZVZH7ZII6w7T5KWhtH_EUPesQFJnM,"<div style=""font-size:60px;"">+</div>","""","""","""","""","""","""","""","""","""","2021-05-05 18:31:23",106.207.218.136,"Mozilla/5.0 (Windows NT 10.0; Win64; x64) AppleWebKit/537.36 (KHTML, like Gecko) Chrome/89.0.4389.128 Safari/537.36",WebKit,Chrome,89.0.4389.128,Windows,10.0
73,1,1421.9100000336766,q,html-keyboard-response,36,97260,0.0-36.0,IwAR2pJTeDT4DB71RN69Vwx4iCv9FdPbZVZH7ZII6w7T5KWhtH_EUPesQFJnM,"
    <img id = 'img_b1' width = 18% height = 32% style = 'position:absolute;top:10%;left:25%'>
    <img id = 'img_b2' width = 18% height = 32% style = 'position:absolute;top:10%;right:25%'>
    <img id = 'img_b3' width = 18% height = 32% style = 'position:absolute;bottom:10%;left:25%'>
    <img id = 'img_b4' width = 18% height = 32% style = 'position:absolute;bottom:10%;right:25%'>
    <div id = 'cum' style = 'position:absolute;top:5%;right:5%;font-size:calc(18px + 6 * ((100vw - 320px) / 680))'></div>
  ","""","""","""","""","""","""","""","""","""","2021-05-05 18:31:23",106.207.218.136,"Mozilla/5.0 (Windows NT 10.0; Win64; x64) AppleWebKit/537.36 (KHTML, like Gecko) Chrome/89.0.4389.128 Safari/537.36",WebKit,Chrome,89.0.4389.128,Windows,10.0
73,1,null,null,html-keyboard-response,37,98779,0.0-37.0,IwAR2pJTeDT4DB71RN69Vwx4iCv9FdPbZVZH7ZII6w7T5KWhtH_EUPesQFJnM,"
    <img id = 'img_b1' width = 18% height = 32% style = 'position:absolute;top:10%;left:25%'>
    <img id = 'img_b2' width = 18% height = 32% style = 'position:absolute;top:10%;right:25%'>
    <img id = 'img_b3' width = 18% height = 32% style = 'position:absolute;bottom:10%;left:25%'>
    <img id = 'img_b4' width = 18% height = 32% style = 'position:absolute;bottom:10%;right:25%'>
    <div id = 'band_txt'></div>
    <div id = 'cum' style = 'position:absolute;top:5%;right:5%;font-size:calc(18px + 6 * ((100vw - 320px) / 680))'></div>
  ","""","""","""","""","""","""","""","""","""","2021-05-05 18:31:23",106.207.218.136,"Mozilla/5.0 (Windows NT 10.0; Win64; x64) AppleWebKit/537.36 (KHTML, like Gecko) Chrome/89.0.4389.128 Safari/537.36",WebKit,Chrome,89.0.4389.128,Windows,10.0
73,1,null,null,html-keyboard-response,38,100546,0.0-38.0,IwAR2pJTeDT4DB71RN69Vwx4iCv9FdPbZVZH7ZII6w7T5KWhtH_EUPesQFJnM,"<div style=""font-size:60px;"">+</div>","""","""","""","""","""","""","""","""","""","2021-05-05 18:31:23",106.207.218.136,"Mozilla/5.0 (Windows NT 10.0; Win64; x64) AppleWebKit/537.36 (KHTML, like Gecko) Chrome/89.0.4389.128 Safari/537.36",WebKit,Chrome,89.0.4389.128,Windows,10.0
73,1,556.1649999581277,q,html-keyboard-response,39,101104,0.0-39.0,IwAR2pJTeDT4DB71RN69Vwx4iCv9FdPbZVZH7ZII6w7T5KWhtH_EUPesQFJnM,"
    <img id = 'img_b1' width = 18% height = 32% style = 'position:absolute;top:10%;left:25%'>
    <img id = 'img_b2' width = 18% height = 32% style = 'position:absolute;top:10%;right:25%'>
    <img id = 'img_b3' width = 18% height = 32% style = 'position:absolute;bottom:10%;left:25%'>
    <img id = 'img_b4' width = 18% height = 32% style = 'position:absolute;bottom:10%;right:25%'>
    <div id = 'cum' style = 'position:absolute;top:5%;right:5%;font-size:calc(18px + 6 * ((100vw - 320px) / 680))'></div>
  ","""","""","""","""","""","""","""","""","""","2021-05-05 18:31:23",106.207.218.136,"Mozilla/5.0 (Windows NT 10.0; Win64; x64) AppleWebKit/537.36 (KHTML, like Gecko) Chrome/89.0.4389.128 Safari/537.36",WebKit,Chrome,89.0.4389.128,Windows,10.0
73,1,null,null,html-keyboard-response,40,102613,0.0-40.0,IwAR2pJTeDT4DB71RN69Vwx4iCv9FdPbZVZH7ZII6w7T5KWhtH_EUPesQFJnM,"
    <img id = 'img_b1' width = 18% height = 32% style = 'position:absolute;top:10%;left:25%'>
    <img id = 'img_b2' width = 18% height = 32% style = 'position:absolute;top:10%;right:25%'>
    <img id = 'img_b3' width = 18% height = 32% style = 'position:absolute;bottom:10%;left:25%'>
    <img id = 'img_b4' width = 18% height = 32% style = 'position:absolute;bottom:10%;right:25%'>
    <div id = 'band_txt'></div>
    <div id = 'cum' style = 'position:absolute;top:5%;right:5%;font-size:calc(18px + 6 * ((100vw - 320px) / 680))'></div>
  ","""","""","""","""","""","""","""","""","""","2021-05-05 18:31:23",106.207.218.136,"Mozilla/5.0 (Windows NT 10.0; Win64; x64) AppleWebKit/537.36 (KHTML, like Gecko) Chrome/89.0.4389.128 Safari/537.36",WebKit,Chrome,89.0.4389.128,Windows,10.0
73,1,null,null,html-keyboard-response,41,103374,0.0-41.0,IwAR2pJTeDT4DB71RN69Vwx4iCv9FdPbZVZH7ZII6w7T5KWhtH_EUPesQFJnM,"<div style=""font-size:60px;"">+</div>","""","""","""","""","""","""","""","""","""","2021-05-05 18:31:23",106.207.218.136,"Mozilla/5.0 (Windows NT 10.0; Win64; x64) AppleWebKit/537.36 (KHTML, like Gecko) Chrome/89.0.4389.128 Safari/537.36",WebKit,Chrome,89.0.4389.128,Windows,10.0
73,1,1116.535000037402,q,html-keyboard-response,42,104500,0.0-42.0,IwAR2pJTeDT4DB71RN69Vwx4iCv9FdPbZVZH7ZII6w7T5KWhtH_EUPesQFJnM,"
    <img id = 'img_b1' width = 18% height = 32% style = 'position:absolute;top:10%;left:25%'>
    <img id = 'img_b2' width = 18% height = 32% style = 'position:absolute;top:10%;right:25%'>
    <img id = 'img_b3' width = 18% height = 32% style = 'position:absolute;bottom:10%;left:25%'>
    <img id = 'img_b4' width = 18% height = 32% style = 'position:absolute;bottom:10%;right:25%'>
    <div id = 'cum' style = 'position:absolute;top:5%;right:5%;font-size:calc(18px + 6 * ((100vw - 320px) / 680))'></div>
  ","""","""","""","""","""","""","""","""","""","2021-05-05 18:31:23",106.207.218.136,"Mozilla/5.0 (Windows NT 10.0; Win64; x64) AppleWebKit/537.36 (KHTML, like Gecko) Chrome/89.0.4389.128 Safari/537.36",WebKit,Chrome,89.0.4389.128,Windows,10.0
73,1,null,null,html-keyboard-response,43,106008,0.0-43.0,IwAR2pJTeDT4DB71RN69Vwx4iCv9FdPbZVZH7ZII6w7T5KWhtH_EUPesQFJnM,"
    <img id = 'img_b1' width = 18% height = 32% style = 'position:absolute;top:10%;left:25%'>
    <img id = 'img_b2' width = 18% height = 32% style = 'position:absolute;top:10%;right:25%'>
    <img id = 'img_b3' width = 18% height = 32% style = 'position:absolute;bottom:10%;left:25%'>
    <img id = 'img_b4' width = 18% height = 32% style = 'position:absolute;bottom:10%;right:25%'>
    <div id = 'band_txt'></div>
    <div id = 'cum' style = 'position:absolute;top:5%;right:5%;font-size:calc(18px + 6 * ((100vw - 320px) / 680))'></div>
  ","""","""","""","""","""","""","""","""","""","2021-05-05 18:31:23",106.207.218.136,"Mozilla/5.0 (Windows NT 10.0; Win64; x64) AppleWebKit/537.36 (KHTML, like Gecko) Chrome/89.0.4389.128 Safari/537.36",WebKit,Chrome,89.0.4389.128,Windows,10.0
73,1,null,null,html-keyboard-response,44,106764,0.0-44.0,IwAR2pJTeDT4DB71RN69Vwx4iCv9FdPbZVZH7ZII6w7T5KWhtH_EUPesQFJnM,"<div style=""font-size:60px;"">+</div>","""","""","""","""","""","""","""","""","""","2021-05-05 18:31:23",106.207.218.136,"Mozilla/5.0 (Windows NT 10.0; Win64; x64) AppleWebKit/537.36 (KHTML, like Gecko) Chrome/89.0.4389.128 Safari/537.36",WebKit,Chrome,89.0.4389.128,Windows,10.0
73,1,504.54999995417893,m,html-keyboard-response,45,107271,0.0-45.0,IwAR2pJTeDT4DB71RN69Vwx4iCv9FdPbZVZH7ZII6w7T5KWhtH_EUPesQFJnM,"
    <img id = 'img_b1' width = 18% height = 32% style = 'position:absolute;top:10%;left:25%'>
    <img id = 'img_b2' width = 18% height = 32% style = 'position:absolute;top:10%;right:25%'>
    <img id = 'img_b3' width = 18% height = 32% style = 'position:absolute;bottom:10%;left:25%'>
    <img id = 'img_b4' width = 18% height = 32% style = 'position:absolute;bottom:10%;right:25%'>
    <div id = 'cum' style = 'position:absolute;top:5%;right:5%;font-size:calc(18px + 6 * ((100vw - 320px) / 680))'></div>
  ","""","""","""","""","""","""","""","""","""","2021-05-05 18:31:23",106.207.218.136,"Mozilla/5.0 (Windows NT 10.0; Win64; x64) AppleWebKit/537.36 (KHTML, like Gecko) Chrome/89.0.4389.128 Safari/537.36",WebKit,Chrome,89.0.4389.128,Windows,10.0
73,1,null,null,html-keyboard-response,46,108787,0.0-46.0,IwAR2pJTeDT4DB71RN69Vwx4iCv9FdPbZVZH7ZII6w7T5KWhtH_EUPesQFJnM,"
    <img id = 'img_b1' width = 18% height = 32% style = 'position:absolute;top:10%;left:25%'>
    <img id = 'img_b2' width = 18% height = 32% style = 'position:absolute;top:10%;right:25%'>
    <img id = 'img_b3' width = 18% height = 32% style = 'position:absolute;bottom:10%;left:25%'>
    <img id = 'img_b4' width = 18% height = 32% style = 'position:absolute;bottom:10%;right:25%'>
    <div id = 'band_txt'></div>
    <div id = 'cum' style = 'position:absolute;top:5%;right:5%;font-size:calc(18px + 6 * ((100vw - 320px) / 680))'></div>
  ","""","""","""","""","""","""","""","""","""","2021-05-05 18:31:23",106.207.218.136,"Mozilla/5.0 (Windows NT 10.0; Win64; x64) AppleWebKit/537.36 (KHTML, like Gecko) Chrome/89.0.4389.128 Safari/537.36",WebKit,Chrome,89.0.4389.128,Windows,10.0
73,1,null,null,html-keyboard-response,47,109547,0.0-47.0,IwAR2pJTeDT4DB71RN69Vwx4iCv9FdPbZVZH7ZII6w7T5KWhtH_EUPesQFJnM,"<div style=""font-size:60px;"">+</div>","""","""","""","""","""","""","""","""","""","2021-05-05 18:31:23",106.207.218.136,"Mozilla/5.0 (Windows NT 10.0; Win64; x64) AppleWebKit/537.36 (KHTML, like Gecko) Chrome/89.0.4389.128 Safari/537.36",WebKit,Chrome,89.0.4389.128,Windows,10.0
73,1,593.2100000791252,q,html-keyboard-response,48,110150,0.0-48.0,IwAR2pJTeDT4DB71RN69Vwx4iCv9FdPbZVZH7ZII6w7T5KWhtH_EUPesQFJnM,"
    <img id = 'img_b1' width = 18% height = 32% style = 'position:absolute;top:10%;left:25%'>
    <img id = 'img_b2' width = 18% height = 32% style = 'position:absolute;top:10%;right:25%'>
    <img id = 'img_b3' width = 18% height = 32% style = 'position:absolute;bottom:10%;left:25%'>
    <img id = 'img_b4' width = 18% height = 32% style = 'position:absolute;bottom:10%;right:25%'>
    <div id = 'cum' style = 'position:absolute;top:5%;right:5%;font-size:calc(18px + 6 * ((100vw - 320px) / 680))'></div>
  ","""","""","""","""","""","""","""","""","""","2021-05-05 18:31:23",106.207.218.136,"Mozilla/5.0 (Windows NT 10.0; Win64; x64) AppleWebKit/537.36 (KHTML, like Gecko) Chrome/89.0.4389.128 Safari/537.36",WebKit,Chrome,89.0.4389.128,Windows,10.0
73,1,null,null,html-keyboard-response,49,111657,0.0-49.0,IwAR2pJTeDT4DB71RN69Vwx4iCv9FdPbZVZH7ZII6w7T5KWhtH_EUPesQFJnM,"
    <img id = 'img_b1' width = 18% height = 32% style = 'position:absolute;top:10%;left:25%'>
    <img id = 'img_b2' width = 18% height = 32% style = 'position:absolute;top:10%;right:25%'>
    <img id = 'img_b3' width = 18% height = 32% style = 'position:absolute;bottom:10%;left:25%'>
    <img id = 'img_b4' width = 18% height = 32% style = 'position:absolute;bottom:10%;right:25%'>
    <div id = 'band_txt'></div>
    <div id = 'cum' style = 'position:absolute;top:5%;right:5%;font-size:calc(18px + 6 * ((100vw - 320px) / 680))'></div>
  ","""","""","""","""","""","""","""","""","""","2021-05-05 18:31:23",106.207.218.136,"Mozilla/5.0 (Windows NT 10.0; Win64; x64) AppleWebKit/537.36 (KHTML, like Gecko) Chrome/89.0.4389.128 Safari/537.36",WebKit,Chrome,89.0.4389.128,Windows,10.0
73,1,null,null,html-keyboard-response,50,112422,0.0-50.0,IwAR2pJTeDT4DB71RN69Vwx4iCv9FdPbZVZH7ZII6w7T5KWhtH_EUPesQFJnM,"<div style=""font-size:60px;"">+</div>","""","""","""","""","""","""","""","""","""","2021-05-05 18:31:23",106.207.218.136,"Mozilla/5.0 (Windows NT 10.0; Win64; x64) AppleWebKit/537.36 (KHTML, like Gecko) Chrome/89.0.4389.128 Safari/537.36",WebKit,Chrome,89.0.4389.128,Windows,10.0
73,1,404.039999935776,p,html-keyboard-response,51,112828,0.0-51.0,IwAR2pJTeDT4DB71RN69Vwx4iCv9FdPbZVZH7ZII6w7T5KWhtH_EUPesQFJnM,"
    <img id = 'img_b1' width = 18% height = 32% style = 'position:absolute;top:10%;left:25%'>
    <img id = 'img_b2' width = 18% height = 32% style = 'position:absolute;top:10%;right:25%'>
    <img id = 'img_b3' width = 18% height = 32% style = 'position:absolute;bottom:10%;left:25%'>
    <img id = 'img_b4' width = 18% height = 32% style = 'position:absolute;bottom:10%;right:25%'>
    <div id = 'cum' style = 'position:absolute;top:5%;right:5%;font-size:calc(18px + 6 * ((100vw - 320px) / 680))'></div>
  ","""","""","""","""","""","""","""","""","""","2021-05-05 18:31:23",106.207.218.136,"Mozilla/5.0 (Windows NT 10.0; Win64; x64) AppleWebKit/537.36 (KHTML, like Gecko) Chrome/89.0.4389.128 Safari/537.36",WebKit,Chrome,89.0.4389.128,Windows,10.0
73,1,null,null,html-keyboard-response,52,114346,0.0-52.0,IwAR2pJTeDT4DB71RN69Vwx4iCv9FdPbZVZH7ZII6w7T5KWhtH_EUPesQFJnM,"
    <img id = 'img_b1' width = 18% height = 32% style = 'position:absolute;top:10%;left:25%'>
    <img id = 'img_b2' width = 18% height = 32% style = 'position:absolute;top:10%;right:25%'>
    <img id = 'img_b3' width = 18% height = 32% style = 'position:absolute;bottom:10%;left:25%'>
    <img id = 'img_b4' width = 18% height = 32% style = 'position:absolute;bottom:10%;right:25%'>
    <div id = 'band_txt'></div>
    <div id = 'cum' style = 'position:absolute;top:5%;right:5%;font-size:calc(18px + 6 * ((100vw - 320px) / 680))'></div>
  ","""","""","""","""","""","""","""","""","""","2021-05-05 18:31:23",106.207.218.136,"Mozilla/5.0 (Windows NT 10.0; Win64; x64) AppleWebKit/537.36 (KHTML, like Gecko) Chrome/89.0.4389.128 Safari/537.36",WebKit,Chrome,89.0.4389.128,Windows,10.0
73,1,null,null,html-keyboard-response,53,115102,0.0-53.0,IwAR2pJTeDT4DB71RN69Vwx4iCv9FdPbZVZH7ZII6w7T5KWhtH_EUPesQFJnM,"<div style=""font-size:60px;"">+</div>","""","""","""","""","""","""","""","""","""","2021-05-05 18:31:23",106.207.218.136,"Mozilla/5.0 (Windows NT 10.0; Win64; x64) AppleWebKit/537.36 (KHTML, like Gecko) Chrome/89.0.4389.128 Safari/537.36",WebKit,Chrome,89.0.4389.128,Windows,10.0
73,1,268.70999997481704,z,html-keyboard-response,54,115372,0.0-54.0,IwAR2pJTeDT4DB71RN69Vwx4iCv9FdPbZVZH7ZII6w7T5KWhtH_EUPesQFJnM,"
    <img id = 'img_b1' width = 18% height = 32% style = 'position:absolute;top:10%;left:25%'>
    <img id = 'img_b2' width = 18% height = 32% style = 'position:absolute;top:10%;right:25%'>
    <img id = 'img_b3' width = 18% height = 32% style = 'position:absolute;bottom:10%;left:25%'>
    <img id = 'img_b4' width = 18% height = 32% style = 'position:absolute;bottom:10%;right:25%'>
    <div id = 'cum' style = 'position:absolute;top:5%;right:5%;font-size:calc(18px + 6 * ((100vw - 320px) / 680))'></div>
  ","""","""","""","""","""","""","""","""","""","2021-05-05 18:31:23",106.207.218.136,"Mozilla/5.0 (Windows NT 10.0; Win64; x64) AppleWebKit/537.36 (KHTML, like Gecko) Chrome/89.0.4389.128 Safari/537.36",WebKit,Chrome,89.0.4389.128,Windows,10.0
73,1,null,null,html-keyboard-response,55,116886,0.0-55.0,IwAR2pJTeDT4DB71RN69Vwx4iCv9FdPbZVZH7ZII6w7T5KWhtH_EUPesQFJnM,"
    <img id = 'img_b1' width = 18% height = 32% style = 'position:absolute;top:10%;left:25%'>
    <img id = 'img_b2' width = 18% height = 32% style = 'position:absolute;top:10%;right:25%'>
    <img id = 'img_b3' width = 18% height = 32% style = 'position:absolute;bottom:10%;left:25%'>
    <img id = 'img_b4' width = 18% height = 32% style = 'position:absolute;bottom:10%;right:25%'>
    <div id = 'band_txt'></div>
    <div id = 'cum' style = 'position:absolute;top:5%;right:5%;font-size:calc(18px + 6 * ((100vw - 320px) / 680))'></div>
  ","""","""","""","""","""","""","""","""","""","2021-05-05 18:31:23",106.207.218.136,"Mozilla/5.0 (Windows NT 10.0; Win64; x64) AppleWebKit/537.36 (KHTML, like Gecko) Chrome/89.0.4389.128 Safari/537.36",WebKit,Chrome,89.0.4389.128,Windows,10.0
73,1,null,null,html-keyboard-response,56,118655,0.0-56.0,IwAR2pJTeDT4DB71RN69Vwx4iCv9FdPbZVZH7ZII6w7T5KWhtH_EUPesQFJnM,"<div style=""font-size:60px;"">+</div>","""","""","""","""","""","""","""","""","""","2021-05-05 18:31:23",106.207.218.136,"Mozilla/5.0 (Windows NT 10.0; Win64; x64) AppleWebKit/537.36 (KHTML, like Gecko) Chrome/89.0.4389.128 Safari/537.36",WebKit,Chrome,89.0.4389.128,Windows,10.0
73,1,427.9050000477582,q,html-keyboard-response,57,119085,0.0-57.0,IwAR2pJTeDT4DB71RN69Vwx4iCv9FdPbZVZH7ZII6w7T5KWhtH_EUPesQFJnM,"
    <img id = 'img_b1' width = 18% height = 32% style = 'position:absolute;top:10%;left:25%'>
    <img id = 'img_b2' width = 18% height = 32% style = 'position:absolute;top:10%;right:25%'>
    <img id = 'img_b3' width = 18% height = 32% style = 'position:absolute;bottom:10%;left:25%'>
    <img id = 'img_b4' width = 18% height = 32% style = 'position:absolute;bottom:10%;right:25%'>
    <div id = 'cum' style = 'position:absolute;top:5%;right:5%;font-size:calc(18px + 6 * ((100vw - 320px) / 680))'></div>
  ","""","""","""","""","""","""","""","""","""","2021-05-05 18:31:23",106.207.218.136,"Mozilla/5.0 (Windows NT 10.0; Win64; x64) AppleWebKit/537.36 (KHTML, like Gecko) Chrome/89.0.4389.128 Safari/537.36",WebKit,Chrome,89.0.4389.128,Windows,10.0
73,1,null,null,html-keyboard-response,58,120594,0.0-58.0,IwAR2pJTeDT4DB71RN69Vwx4iCv9FdPbZVZH7ZII6w7T5KWhtH_EUPesQFJnM,"
    <img id = 'img_b1' width = 18% height = 32% style = 'position:absolute;top:10%;left:25%'>
    <img id = 'img_b2' width = 18% height = 32% style = 'position:absolute;top:10%;right:25%'>
    <img id = 'img_b3' width = 18% height = 32% style = 'position:absolute;bottom:10%;left:25%'>
    <img id = 'img_b4' width = 18% height = 32% style = 'position:absolute;bottom:10%;right:25%'>
    <div id = 'band_txt'></div>
    <div id = 'cum' style = 'position:absolute;top:5%;right:5%;font-size:calc(18px + 6 * ((100vw - 320px) / 680))'></div>
  ","""","""","""","""","""","""","""","""","""","2021-05-05 18:31:23",106.207.218.136,"Mozilla/5.0 (Windows NT 10.0; Win64; x64) AppleWebKit/537.36 (KHTML, like Gecko) Chrome/89.0.4389.128 Safari/537.36",WebKit,Chrome,89.0.4389.128,Windows,10.0
73,1,null,null,html-keyboard-response,59,121354,0.0-59.0,IwAR2pJTeDT4DB71RN69Vwx4iCv9FdPbZVZH7ZII6w7T5KWhtH_EUPesQFJnM,"<div style=""font-size:60px;"">+</div>","""","""","""","""","""","""","""","""","""","2021-05-05 18:31:23",106.207.218.136,"Mozilla/5.0 (Windows NT 10.0; Win64; x64) AppleWebKit/537.36 (KHTML, like Gecko) Chrome/89.0.4389.128 Safari/537.36",WebKit,Chrome,89.0.4389.128,Windows,10.0
73,1,360.6749998871237,q,html-keyboard-response,60,121716,0.0-60.0,IwAR2pJTeDT4DB71RN69Vwx4iCv9FdPbZVZH7ZII6w7T5KWhtH_EUPesQFJnM,"
    <img id = 'img_b1' width = 18% height = 32% style = 'position:absolute;top:10%;left:25%'>
    <img id = 'img_b2' width = 18% height = 32% style = 'position:absolute;top:10%;right:25%'>
    <img id = 'img_b3' width = 18% height = 32% style = 'position:absolute;bottom:10%;left:25%'>
    <img id = 'img_b4' width = 18% height = 32% style = 'position:absolute;bottom:10%;right:25%'>
    <div id = 'cum' style = 'position:absolute;top:5%;right:5%;font-size:calc(18px + 6 * ((100vw - 320px) / 680))'></div>
  ","""","""","""","""","""","""","""","""","""","2021-05-05 18:31:23",106.207.218.136,"Mozilla/5.0 (Windows NT 10.0; Win64; x64) AppleWebKit/537.36 (KHTML, like Gecko) Chrome/89.0.4389.128 Safari/537.36",WebKit,Chrome,89.0.4389.128,Windows,10.0
73,1,null,null,html-keyboard-response,61,123230,0.0-61.0,IwAR2pJTeDT4DB71RN69Vwx4iCv9FdPbZVZH7ZII6w7T5KWhtH_EUPesQFJnM,"
    <img id = 'img_b1' width = 18% height = 32% style = 'position:absolute;top:10%;left:25%'>
    <img id = 'img_b2' width = 18% height = 32% style = 'position:absolute;top:10%;right:25%'>
    <img id = 'img_b3' width = 18% height = 32% style = 'position:absolute;bottom:10%;left:25%'>
    <img id = 'img_b4' width = 18% height = 32% style = 'position:absolute;bottom:10%;right:25%'>
    <div id = 'band_txt'></div>
    <div id = 'cum' style = 'position:absolute;top:5%;right:5%;font-size:calc(18px + 6 * ((100vw - 320px) / 680))'></div>
  ","""","""","""","""","""","""","""","""","""","2021-05-05 18:31:23",106.207.218.136,"Mozilla/5.0 (Windows NT 10.0; Win64; x64) AppleWebKit/537.36 (KHTML, like Gecko) Chrome/89.0.4389.128 Safari/537.36",WebKit,Chrome,89.0.4389.128,Windows,10.0
73,1,null,null,html-keyboard-response,62,124750,0.0-62.0,IwAR2pJTeDT4DB71RN69Vwx4iCv9FdPbZVZH7ZII6w7T5KWhtH_EUPesQFJnM,"<div style=""font-size:60px;"">+</div>","""","""","""","""","""","""","""","""","""","2021-05-05 18:31:23",106.207.218.136,"Mozilla/5.0 (Windows NT 10.0; Win64; x64) AppleWebKit/537.36 (KHTML, like Gecko) Chrome/89.0.4389.128 Safari/537.36",WebKit,Chrome,89.0.4389.128,Windows,10.0
73,1,417.9299999959767,q,html-keyboard-response,63,125170,0.0-63.0,IwAR2pJTeDT4DB71RN69Vwx4iCv9FdPbZVZH7ZII6w7T5KWhtH_EUPesQFJnM,"
    <img id = 'img_b1' width = 18% height = 32% style = 'position:absolute;top:10%;left:25%'>
    <img id = 'img_b2' width = 18% height = 32% style = 'position:absolute;top:10%;right:25%'>
    <img id = 'img_b3' width = 18% height = 32% style = 'position:absolute;bottom:10%;left:25%'>
    <img id = 'img_b4' width = 18% height = 32% style = 'position:absolute;bottom:10%;right:25%'>
    <div id = 'cum' style = 'position:absolute;top:5%;right:5%;font-size:calc(18px + 6 * ((100vw - 320px) / 680))'></div>
  ","""","""","""","""","""","""","""","""","""","2021-05-05 18:31:23",106.207.218.136,"Mozilla/5.0 (Windows NT 10.0; Win64; x64) AppleWebKit/537.36 (KHTML, like Gecko) Chrome/89.0.4389.128 Safari/537.36",WebKit,Chrome,89.0.4389.128,Windows,10.0
73,1,null,null,html-keyboard-response,64,126678,0.0-64.0,IwAR2pJTeDT4DB71RN69Vwx4iCv9FdPbZVZH7ZII6w7T5KWhtH_EUPesQFJnM,"
    <img id = 'img_b1' width = 18% height = 32% style = 'position:absolute;top:10%;left:25%'>
    <img id = 'img_b2' width = 18% height = 32% style = 'position:absolute;top:10%;right:25%'>
    <img id = 'img_b3' width = 18% height = 32% style = 'position:absolute;bottom:10%;left:25%'>
    <img id = 'img_b4' width = 18% height = 32% style = 'position:absolute;bottom:10%;right:25%'>
    <div id = 'band_txt'></div>
    <div id = 'cum' style = 'position:absolute;top:5%;right:5%;font-size:calc(18px + 6 * ((100vw - 320px) / 680))'></div>
  ","""","""","""","""","""","""","""","""","""","2021-05-05 18:31:23",106.207.218.136,"Mozilla/5.0 (Windows NT 10.0; Win64; x64) AppleWebKit/537.36 (KHTML, like Gecko) Chrome/89.0.4389.128 Safari/537.36",WebKit,Chrome,89.0.4389.128,Windows,10.0
73,1,null,null,html-keyboard-response,65,127438,0.0-65.0,IwAR2pJTeDT4DB71RN69Vwx4iCv9FdPbZVZH7ZII6w7T5KWhtH_EUPesQFJnM,"<div style=""font-size:60px;"">+</div>","""","""","""","""","""","""","""","""","""","2021-05-05 18:31:23",106.207.218.136,"Mozilla/5.0 (Windows NT 10.0; Win64; x64) AppleWebKit/537.36 (KHTML, like Gecko) Chrome/89.0.4389.128 Safari/537.36",WebKit,Chrome,89.0.4389.128,Windows,10.0
73,1,291.66000010445714,q,html-keyboard-response,66,127732,0.0-66.0,IwAR2pJTeDT4DB71RN69Vwx4iCv9FdPbZVZH7ZII6w7T5KWhtH_EUPesQFJnM,"
    <img id = 'img_b1' width = 18% height = 32% style = 'position:absolute;top:10%;left:25%'>
    <img id = 'img_b2' width = 18% height = 32% style = 'position:absolute;top:10%;right:25%'>
    <img id = 'img_b3' width = 18% height = 32% style = 'position:absolute;bottom:10%;left:25%'>
    <img id = 'img_b4' width = 18% height = 32% style = 'position:absolute;bottom:10%;right:25%'>
    <div id = 'cum' style = 'position:absolute;top:5%;right:5%;font-size:calc(18px + 6 * ((100vw - 320px) / 680))'></div>
  ","""","""","""","""","""","""","""","""","""","2021-05-05 18:31:23",106.207.218.136,"Mozilla/5.0 (Windows NT 10.0; Win64; x64) AppleWebKit/537.36 (KHTML, like Gecko) Chrome/89.0.4389.128 Safari/537.36",WebKit,Chrome,89.0.4389.128,Windows,10.0
73,1,null,null,html-keyboard-response,67,129237,0.0-67.0,IwAR2pJTeDT4DB71RN69Vwx4iCv9FdPbZVZH7ZII6w7T5KWhtH_EUPesQFJnM,"
    <img id = 'img_b1' width = 18% height = 32% style = 'position:absolute;top:10%;left:25%'>
    <img id = 'img_b2' width = 18% height = 32% style = 'position:absolute;top:10%;right:25%'>
    <img id = 'img_b3' width = 18% height = 32% style = 'position:absolute;bottom:10%;left:25%'>
    <img id = 'img_b4' width = 18% height = 32% style = 'position:absolute;bottom:10%;right:25%'>
    <div id = 'band_txt'></div>
    <div id = 'cum' style = 'position:absolute;top:5%;right:5%;font-size:calc(18px + 6 * ((100vw - 320px) / 680))'></div>
  ","""","""","""","""","""","""","""","""","""","2021-05-05 18:31:23",106.207.218.136,"Mozilla/5.0 (Windows NT 10.0; Win64; x64) AppleWebKit/537.36 (KHTML, like Gecko) Chrome/89.0.4389.128 Safari/537.36",WebKit,Chrome,89.0.4389.128,Windows,10.0
73,1,null,null,html-keyboard-response,68,130753,0.0-68.0,IwAR2pJTeDT4DB71RN69Vwx4iCv9FdPbZVZH7ZII6w7T5KWhtH_EUPesQFJnM,"<div style=""font-size:60px;"">+</div>","""","""","""","""","""","""","""","""","""","2021-05-05 18:31:23",106.207.218.136,"Mozilla/5.0 (Windows NT 10.0; Win64; x64) AppleWebKit/537.36 (KHTML, like Gecko) Chrome/89.0.4389.128 Safari/537.36",WebKit,Chrome,89.0.4389.128,Windows,10.0
73,1,282.5899999588728,q,html-keyboard-response,69,131041,0.0-69.0,IwAR2pJTeDT4DB71RN69Vwx4iCv9FdPbZVZH7ZII6w7T5KWhtH_EUPesQFJnM,"
    <img id = 'img_b1' width = 18% height = 32% style = 'position:absolute;top:10%;left:25%'>
    <img id = 'img_b2' width = 18% height = 32% style = 'position:absolute;top:10%;right:25%'>
    <img id = 'img_b3' width = 18% height = 32% style = 'position:absolute;bottom:10%;left:25%'>
    <img id = 'img_b4' width = 18% height = 32% style = 'position:absolute;bottom:10%;right:25%'>
    <div id = 'cum' style = 'position:absolute;top:5%;right:5%;font-size:calc(18px + 6 * ((100vw - 320px) / 680))'></div>
  ","""","""","""","""","""","""","""","""","""","2021-05-05 18:31:23",106.207.218.136,"Mozilla/5.0 (Windows NT 10.0; Win64; x64) AppleWebKit/537.36 (KHTML, like Gecko) Chrome/89.0.4389.128 Safari/537.36",WebKit,Chrome,89.0.4389.128,Windows,10.0
73,1,null,null,html-keyboard-response,70,132551,0.0-70.0,IwAR2pJTeDT4DB71RN69Vwx4iCv9FdPbZVZH7ZII6w7T5KWhtH_EUPesQFJnM,"
    <img id = 'img_b1' width = 18% height = 32% style = 'position:absolute;top:10%;left:25%'>
    <img id = 'img_b2' width = 18% height = 32% style = 'position:absolute;top:10%;right:25%'>
    <img id = 'img_b3' width = 18% height = 32% style = 'position:absolute;bottom:10%;left:25%'>
    <img id = 'img_b4' width = 18% height = 32% style = 'position:absolute;bottom:10%;right:25%'>
    <div id = 'band_txt'></div>
    <div id = 'cum' style = 'position:absolute;top:5%;right:5%;font-size:calc(18px + 6 * ((100vw - 320px) / 680))'></div>
  ","""","""","""","""","""","""","""","""","""","2021-05-05 18:31:23",106.207.218.136,"Mozilla/5.0 (Windows NT 10.0; Win64; x64) AppleWebKit/537.36 (KHTML, like Gecko) Chrome/89.0.4389.128 Safari/537.36",WebKit,Chrome,89.0.4389.128,Windows,10.0
73,1,null,null,html-keyboard-response,71,133309,0.0-71.0,IwAR2pJTeDT4DB71RN69Vwx4iCv9FdPbZVZH7ZII6w7T5KWhtH_EUPesQFJnM,"<div style=""font-size:60px;"">+</div>","""","""","""","""","""","""","""","""","""","2021-05-05 18:31:23",106.207.218.136,"Mozilla/5.0 (Windows NT 10.0; Win64; x64) AppleWebKit/537.36 (KHTML, like Gecko) Chrome/89.0.4389.128 Safari/537.36",WebKit,Chrome,89.0.4389.128,Windows,10.0
73,1,372.79499997384846,q,html-keyboard-response,72,133684,0.0-72.0,IwAR2pJTeDT4DB71RN69Vwx4iCv9FdPbZVZH7ZII6w7T5KWhtH_EUPesQFJnM,"
    <img id = 'img_b1' width = 18% height = 32% style = 'position:absolute;top:10%;left:25%'>
    <img id = 'img_b2' width = 18% height = 32% style = 'position:absolute;top:10%;right:25%'>
    <img id = 'img_b3' width = 18% height = 32% style = 'position:absolute;bottom:10%;left:25%'>
    <img id = 'img_b4' width = 18% height = 32% style = 'position:absolute;bottom:10%;right:25%'>
    <div id = 'cum' style = 'position:absolute;top:5%;right:5%;font-size:calc(18px + 6 * ((100vw - 320px) / 680))'></div>
  ","""","""","""","""","""","""","""","""","""","2021-05-05 18:31:23",106.207.218.136,"Mozilla/5.0 (Windows NT 10.0; Win64; x64) AppleWebKit/537.36 (KHTML, like Gecko) Chrome/89.0.4389.128 Safari/537.36",WebKit,Chrome,89.0.4389.128,Windows,10.0
73,1,null,null,html-keyboard-response,73,135199,0.0-73.0,IwAR2pJTeDT4DB71RN69Vwx4iCv9FdPbZVZH7ZII6w7T5KWhtH_EUPesQFJnM,"
    <img id = 'img_b1' width = 18% height = 32% style = 'position:absolute;top:10%;left:25%'>
    <img id = 'img_b2' width = 18% height = 32% style = 'position:absolute;top:10%;right:25%'>
    <img id = 'img_b3' width = 18% height = 32% style = 'position:absolute;bottom:10%;left:25%'>
    <img id = 'img_b4' width = 18% height = 32% style = 'position:absolute;bottom:10%;right:25%'>
    <div id = 'band_txt'></div>
    <div id = 'cum' style = 'position:absolute;top:5%;right:5%;font-size:calc(18px + 6 * ((100vw - 320px) / 680))'></div>
  ","""","""","""","""","""","""","""","""","""","2021-05-05 18:31:23",106.207.218.136,"Mozilla/5.0 (Windows NT 10.0; Win64; x64) AppleWebKit/537.36 (KHTML, like Gecko) Chrome/89.0.4389.128 Safari/537.36",WebKit,Chrome,89.0.4389.128,Windows,10.0
73,1,null,null,html-keyboard-response,74,136953,0.0-74.0,IwAR2pJTeDT4DB71RN69Vwx4iCv9FdPbZVZH7ZII6w7T5KWhtH_EUPesQFJnM,"<div style=""font-size:60px;"">+</div>","""","""","""","""","""","""","""","""","""","2021-05-05 18:31:23",106.207.218.136,"Mozilla/5.0 (Windows NT 10.0; Win64; x64) AppleWebKit/537.36 (KHTML, like Gecko) Chrome/89.0.4389.128 Safari/537.36",WebKit,Chrome,89.0.4389.128,Windows,10.0
73,1,364.7350000683218,m,html-keyboard-response,75,137326,0.0-75.0,IwAR2pJTeDT4DB71RN69Vwx4iCv9FdPbZVZH7ZII6w7T5KWhtH_EUPesQFJnM,"
    <img id = 'img_b1' width = 18% height = 32% style = 'position:absolute;top:10%;left:25%'>
    <img id = 'img_b2' width = 18% height = 32% style = 'position:absolute;top:10%;right:25%'>
    <img id = 'img_b3' width = 18% height = 32% style = 'position:absolute;bottom:10%;left:25%'>
    <img id = 'img_b4' width = 18% height = 32% style = 'position:absolute;bottom:10%;right:25%'>
    <div id = 'cum' style = 'position:absolute;top:5%;right:5%;font-size:calc(18px + 6 * ((100vw - 320px) / 680))'></div>
  ","""","""","""","""","""","""","""","""","""","2021-05-05 18:31:23",106.207.218.136,"Mozilla/5.0 (Windows NT 10.0; Win64; x64) AppleWebKit/537.36 (KHTML, like Gecko) Chrome/89.0.4389.128 Safari/537.36",WebKit,Chrome,89.0.4389.128,Windows,10.0
73,1,null,null,html-keyboard-response,76,138839,0.0-76.0,IwAR2pJTeDT4DB71RN69Vwx4iCv9FdPbZVZH7ZII6w7T5KWhtH_EUPesQFJnM,"
    <img id = 'img_b1' width = 18% height = 32% style = 'position:absolute;top:10%;left:25%'>
    <img id = 'img_b2' width = 18% height = 32% style = 'position:absolute;top:10%;right:25%'>
    <img id = 'img_b3' width = 18% height = 32% style = 'position:absolute;bottom:10%;left:25%'>
    <img id = 'img_b4' width = 18% height = 32% style = 'position:absolute;bottom:10%;right:25%'>
    <div id = 'band_txt'></div>
    <div id = 'cum' style = 'position:absolute;top:5%;right:5%;font-size:calc(18px + 6 * ((100vw - 320px) / 680))'></div>
  ","""","""","""","""","""","""","""","""","""","2021-05-05 18:31:23",106.207.218.136,"Mozilla/5.0 (Windows NT 10.0; Win64; x64) AppleWebKit/537.36 (KHTML, like Gecko) Chrome/89.0.4389.128 Safari/537.36",WebKit,Chrome,89.0.4389.128,Windows,10.0
73,1,null,null,html-keyboard-response,77,139849,0.0-77.0,IwAR2pJTeDT4DB71RN69Vwx4iCv9FdPbZVZH7ZII6w7T5KWhtH_EUPesQFJnM,"<div style=""font-size:60px;"">+</div>","""","""","""","""","""","""","""","""","""","2021-05-05 18:31:23",106.207.218.136,"Mozilla/5.0 (Windows NT 10.0; Win64; x64) AppleWebKit/537.36 (KHTML, like Gecko) Chrome/89.0.4389.128 Safari/537.36",WebKit,Chrome,89.0.4389.128,Windows,10.0
73,1,390.8500000834465,m,html-keyboard-response,78,140241,0.0-78.0,IwAR2pJTeDT4DB71RN69Vwx4iCv9FdPbZVZH7ZII6w7T5KWhtH_EUPesQFJnM,"
    <img id = 'img_b1' width = 18% height = 32% style = 'position:absolute;top:10%;left:25%'>
    <img id = 'img_b2' width = 18% height = 32% style = 'position:absolute;top:10%;right:25%'>
    <img id = 'img_b3' width = 18% height = 32% style = 'position:absolute;bottom:10%;left:25%'>
    <img id = 'img_b4' width = 18% height = 32% style = 'position:absolute;bottom:10%;right:25%'>
    <div id = 'cum' style = 'position:absolute;top:5%;right:5%;font-size:calc(18px + 6 * ((100vw - 320px) / 680))'></div>
  ","""","""","""","""","""","""","""","""","""","2021-05-05 18:31:23",106.207.218.136,"Mozilla/5.0 (Windows NT 10.0; Win64; x64) AppleWebKit/537.36 (KHTML, like Gecko) Chrome/89.0.4389.128 Safari/537.36",WebKit,Chrome,89.0.4389.128,Windows,10.0
73,1,null,null,html-keyboard-response,79,141748,0.0-79.0,IwAR2pJTeDT4DB71RN69Vwx4iCv9FdPbZVZH7ZII6w7T5KWhtH_EUPesQFJnM,"
    <img id = 'img_b1' width = 18% height = 32% style = 'position:absolute;top:10%;left:25%'>
    <img id = 'img_b2' width = 18% height = 32% style = 'position:absolute;top:10%;right:25%'>
    <img id = 'img_b3' width = 18% height = 32% style = 'position:absolute;bottom:10%;left:25%'>
    <img id = 'img_b4' width = 18% height = 32% style = 'position:absolute;bottom:10%;right:25%'>
    <div id = 'band_txt'></div>
    <div id = 'cum' style = 'position:absolute;top:5%;right:5%;font-size:calc(18px + 6 * ((100vw - 320px) / 680))'></div>
  ","""","""","""","""","""","""","""","""","""","2021-05-05 18:31:23",106.207.218.136,"Mozilla/5.0 (Windows NT 10.0; Win64; x64) AppleWebKit/537.36 (KHTML, like Gecko) Chrome/89.0.4389.128 Safari/537.36",WebKit,Chrome,89.0.4389.128,Windows,10.0
73,1,null,null,html-keyboard-response,80,143004,0.0-80.0,IwAR2pJTeDT4DB71RN69Vwx4iCv9FdPbZVZH7ZII6w7T5KWhtH_EUPesQFJnM,"<div style=""font-size:60px;"">+</div>","""","""","""","""","""","""","""","""","""","2021-05-05 18:31:23",106.207.218.136,"Mozilla/5.0 (Windows NT 10.0; Win64; x64) AppleWebKit/537.36 (KHTML, like Gecko) Chrome/89.0.4389.128 Safari/537.36",WebKit,Chrome,89.0.4389.128,Windows,10.0
73,1,346.2799999397248,p,html-keyboard-response,81,143353,0.0-81.0,IwAR2pJTeDT4DB71RN69Vwx4iCv9FdPbZVZH7ZII6w7T5KWhtH_EUPesQFJnM,"
    <img id = 'img_b1' width = 18% height = 32% style = 'position:absolute;top:10%;left:25%'>
    <img id = 'img_b2' width = 18% height = 32% style = 'position:absolute;top:10%;right:25%'>
    <img id = 'img_b3' width = 18% height = 32% style = 'position:absolute;bottom:10%;left:25%'>
    <img id = 'img_b4' width = 18% height = 32% style = 'position:absolute;bottom:10%;right:25%'>
    <div id = 'cum' style = 'position:absolute;top:5%;right:5%;font-size:calc(18px + 6 * ((100vw - 320px) / 680))'></div>
  ","""","""","""","""","""","""","""","""","""","2021-05-05 18:31:23",106.207.218.136,"Mozilla/5.0 (Windows NT 10.0; Win64; x64) AppleWebKit/537.36 (KHTML, like Gecko) Chrome/89.0.4389.128 Safari/537.36",WebKit,Chrome,89.0.4389.128,Windows,10.0
73,1,null,null,html-keyboard-response,82,144870,0.0-82.0,IwAR2pJTeDT4DB71RN69Vwx4iCv9FdPbZVZH7ZII6w7T5KWhtH_EUPesQFJnM,"
    <img id = 'img_b1' width = 18% height = 32% style = 'position:absolute;top:10%;left:25%'>
    <img id = 'img_b2' width = 18% height = 32% style = 'position:absolute;top:10%;right:25%'>
    <img id = 'img_b3' width = 18% height = 32% style = 'position:absolute;bottom:10%;left:25%'>
    <img id = 'img_b4' width = 18% height = 32% style = 'position:absolute;bottom:10%;right:25%'>
    <div id = 'band_txt'></div>
    <div id = 'cum' style = 'position:absolute;top:5%;right:5%;font-size:calc(18px + 6 * ((100vw - 320px) / 680))'></div>
  ","""","""","""","""","""","""","""","""","""","2021-05-05 18:31:23",106.207.218.136,"Mozilla/5.0 (Windows NT 10.0; Win64; x64) AppleWebKit/537.36 (KHTML, like Gecko) Chrome/89.0.4389.128 Safari/537.36",WebKit,Chrome,89.0.4389.128,Windows,10.0
73,1,null,null,html-keyboard-response,83,146131,0.0-83.0,IwAR2pJTeDT4DB71RN69Vwx4iCv9FdPbZVZH7ZII6w7T5KWhtH_EUPesQFJnM,"<div style=""font-size:60px;"">+</div>","""","""","""","""","""","""","""","""","""","2021-05-05 18:31:23",106.207.218.136,"Mozilla/5.0 (Windows NT 10.0; Win64; x64) AppleWebKit/537.36 (KHTML, like Gecko) Chrome/89.0.4389.128 Safari/537.36",WebKit,Chrome,89.0.4389.128,Windows,10.0
73,1,265.72000002488494,z,html-keyboard-response,84,146399,0.0-84.0,IwAR2pJTeDT4DB71RN69Vwx4iCv9FdPbZVZH7ZII6w7T5KWhtH_EUPesQFJnM,"
    <img id = 'img_b1' width = 18% height = 32% style = 'position:absolute;top:10%;left:25%'>
    <img id = 'img_b2' width = 18% height = 32% style = 'position:absolute;top:10%;right:25%'>
    <img id = 'img_b3' width = 18% height = 32% style = 'position:absolute;bottom:10%;left:25%'>
    <img id = 'img_b4' width = 18% height = 32% style = 'position:absolute;bottom:10%;right:25%'>
    <div id = 'cum' style = 'position:absolute;top:5%;right:5%;font-size:calc(18px + 6 * ((100vw - 320px) / 680))'></div>
  ","""","""","""","""","""","""","""","""","""","2021-05-05 18:31:23",106.207.218.136,"Mozilla/5.0 (Windows NT 10.0; Win64; x64) AppleWebKit/537.36 (KHTML, like Gecko) Chrome/89.0.4389.128 Safari/537.36",WebKit,Chrome,89.0.4389.128,Windows,10.0
73,1,null,null,html-keyboard-response,85,147917,0.0-85.0,IwAR2pJTeDT4DB71RN69Vwx4iCv9FdPbZVZH7ZII6w7T5KWhtH_EUPesQFJnM,"
    <img id = 'img_b1' width = 18% height = 32% style = 'position:absolute;top:10%;left:25%'>
    <img id = 'img_b2' width = 18% height = 32% style = 'position:absolute;top:10%;right:25%'>
    <img id = 'img_b3' width = 18% height = 32% style = 'position:absolute;bottom:10%;left:25%'>
    <img id = 'img_b4' width = 18% height = 32% style = 'position:absolute;bottom:10%;right:25%'>
    <div id = 'band_txt'></div>
    <div id = 'cum' style = 'position:absolute;top:5%;right:5%;font-size:calc(18px + 6 * ((100vw - 320px) / 680))'></div>
  ","""","""","""","""","""","""","""","""","""","2021-05-05 18:31:23",106.207.218.136,"Mozilla/5.0 (Windows NT 10.0; Win64; x64) AppleWebKit/537.36 (KHTML, like Gecko) Chrome/89.0.4389.128 Safari/537.36",WebKit,Chrome,89.0.4389.128,Windows,10.0
73,1,null,null,html-keyboard-response,86,148924,0.0-86.0,IwAR2pJTeDT4DB71RN69Vwx4iCv9FdPbZVZH7ZII6w7T5KWhtH_EUPesQFJnM,"<div style=""font-size:60px;"">+</div>","""","""","""","""","""","""","""","""","""","2021-05-05 18:31:23",106.207.218.136,"Mozilla/5.0 (Windows NT 10.0; Win64; x64) AppleWebKit/537.36 (KHTML, like Gecko) Chrome/89.0.4389.128 Safari/537.36",WebKit,Chrome,89.0.4389.128,Windows,10.0
73,1,230.18999979831278,q,html-keyboard-response,87,149160,0.0-87.0,IwAR2pJTeDT4DB71RN69Vwx4iCv9FdPbZVZH7ZII6w7T5KWhtH_EUPesQFJnM,"
    <img id = 'img_b1' width = 18% height = 32% style = 'position:absolute;top:10%;left:25%'>
    <img id = 'img_b2' width = 18% height = 32% style = 'position:absolute;top:10%;right:25%'>
    <img id = 'img_b3' width = 18% height = 32% style = 'position:absolute;bottom:10%;left:25%'>
    <img id = 'img_b4' width = 18% height = 32% style = 'position:absolute;bottom:10%;right:25%'>
    <div id = 'cum' style = 'position:absolute;top:5%;right:5%;font-size:calc(18px + 6 * ((100vw - 320px) / 680))'></div>
  ","""","""","""","""","""","""","""","""","""","2021-05-05 18:31:23",106.207.218.136,"Mozilla/5.0 (Windows NT 10.0; Win64; x64) AppleWebKit/537.36 (KHTML, like Gecko) Chrome/89.0.4389.128 Safari/537.36",WebKit,Chrome,89.0.4389.128,Windows,10.0
73,1,null,null,html-keyboard-response,88,150674,0.0-88.0,IwAR2pJTeDT4DB71RN69Vwx4iCv9FdPbZVZH7ZII6w7T5KWhtH_EUPesQFJnM,"
    <img id = 'img_b1' width = 18% height = 32% style = 'position:absolute;top:10%;left:25%'>
    <img id = 'img_b2' width = 18% height = 32% style = 'position:absolute;top:10%;right:25%'>
    <img id = 'img_b3' width = 18% height = 32% style = 'position:absolute;bottom:10%;left:25%'>
    <img id = 'img_b4' width = 18% height = 32% style = 'position:absolute;bottom:10%;right:25%'>
    <div id = 'band_txt'></div>
    <div id = 'cum' style = 'position:absolute;top:5%;right:5%;font-size:calc(18px + 6 * ((100vw - 320px) / 680))'></div>
  ","""","""","""","""","""","""","""","""","""","2021-05-05 18:31:23",106.207.218.136,"Mozilla/5.0 (Windows NT 10.0; Win64; x64) AppleWebKit/537.36 (KHTML, like Gecko) Chrome/89.0.4389.128 Safari/537.36",WebKit,Chrome,89.0.4389.128,Windows,10.0
73,1,null,null,html-keyboard-response,89,152182,0.0-89.0,IwAR2pJTeDT4DB71RN69Vwx4iCv9FdPbZVZH7ZII6w7T5KWhtH_EUPesQFJnM,"<div style=""font-size:60px;"">+</div>","""","""","""","""","""","""","""","""","""","2021-05-05 18:31:23",106.207.218.136,"Mozilla/5.0 (Windows NT 10.0; Win64; x64) AppleWebKit/537.36 (KHTML, like Gecko) Chrome/89.0.4389.128 Safari/537.36",WebKit,Chrome,89.0.4389.128,Windows,10.0
73,1,298.32500009797513,m,html-keyboard-response,90,152482,0.0-90.0,IwAR2pJTeDT4DB71RN69Vwx4iCv9FdPbZVZH7ZII6w7T5KWhtH_EUPesQFJnM,"
    <img id = 'img_b1' width = 18% height = 32% style = 'position:absolute;top:10%;left:25%'>
    <img id = 'img_b2' width = 18% height = 32% style = 'position:absolute;top:10%;right:25%'>
    <img id = 'img_b3' width = 18% height = 32% style = 'position:absolute;bottom:10%;left:25%'>
    <img id = 'img_b4' width = 18% height = 32% style = 'position:absolute;bottom:10%;right:25%'>
    <div id = 'cum' style = 'position:absolute;top:5%;right:5%;font-size:calc(18px + 6 * ((100vw - 320px) / 680))'></div>
  ","""","""","""","""","""","""","""","""","""","2021-05-05 18:31:23",106.207.218.136,"Mozilla/5.0 (Windows NT 10.0; Win64; x64) AppleWebKit/537.36 (KHTML, like Gecko) Chrome/89.0.4389.128 Safari/537.36",WebKit,Chrome,89.0.4389.128,Windows,10.0
73,1,null,null,html-keyboard-response,91,153995,0.0-91.0,IwAR2pJTeDT4DB71RN69Vwx4iCv9FdPbZVZH7ZII6w7T5KWhtH_EUPesQFJnM,"
    <img id = 'img_b1' width = 18% height = 32% style = 'position:absolute;top:10%;left:25%'>
    <img id = 'img_b2' width = 18% height = 32% style = 'position:absolute;top:10%;right:25%'>
    <img id = 'img_b3' width = 18% height = 32% style = 'position:absolute;bottom:10%;left:25%'>
    <img id = 'img_b4' width = 18% height = 32% style = 'position:absolute;bottom:10%;right:25%'>
    <div id = 'band_txt'></div>
    <div id = 'cum' style = 'position:absolute;top:5%;right:5%;font-size:calc(18px + 6 * ((100vw - 320px) / 680))'></div>
  ","""","""","""","""","""","""","""","""","""","2021-05-05 18:31:23",106.207.218.136,"Mozilla/5.0 (Windows NT 10.0; Win64; x64) AppleWebKit/537.36 (KHTML, like Gecko) Chrome/89.0.4389.128 Safari/537.36",WebKit,Chrome,89.0.4389.128,Windows,10.0
73,1,null,null,html-keyboard-response,92,155249,0.0-92.0,IwAR2pJTeDT4DB71RN69Vwx4iCv9FdPbZVZH7ZII6w7T5KWhtH_EUPesQFJnM,"<div style=""font-size:60px;"">+</div>","""","""","""","""","""","""","""","""","""","2021-05-05 18:31:23",106.207.218.136,"Mozilla/5.0 (Windows NT 10.0; Win64; x64) AppleWebKit/537.36 (KHTML, like Gecko) Chrome/89.0.4389.128 Safari/537.36",WebKit,Chrome,89.0.4389.128,Windows,10.0
73,1,1081.7599999718368,q,html-keyboard-response,93,156333,0.0-93.0,IwAR2pJTeDT4DB71RN69Vwx4iCv9FdPbZVZH7ZII6w7T5KWhtH_EUPesQFJnM,"
    <img id = 'img_b1' width = 18% height = 32% style = 'position:absolute;top:10%;left:25%'>
    <img id = 'img_b2' width = 18% height = 32% style = 'position:absolute;top:10%;right:25%'>
    <img id = 'img_b3' width = 18% height = 32% style = 'position:absolute;bottom:10%;left:25%'>
    <img id = 'img_b4' width = 18% height = 32% style = 'position:absolute;bottom:10%;right:25%'>
    <div id = 'cum' style = 'position:absolute;top:5%;right:5%;font-size:calc(18px + 6 * ((100vw - 320px) / 680))'></div>
  ","""","""","""","""","""","""","""","""","""","2021-05-05 18:31:23",106.207.218.136,"Mozilla/5.0 (Windows NT 10.0; Win64; x64) AppleWebKit/537.36 (KHTML, like Gecko) Chrome/89.0.4389.128 Safari/537.36",WebKit,Chrome,89.0.4389.128,Windows,10.0
73,1,null,null,html-keyboard-response,94,157856,0.0-94.0,IwAR2pJTeDT4DB71RN69Vwx4iCv9FdPbZVZH7ZII6w7T5KWhtH_EUPesQFJnM,"
    <img id = 'img_b1' width = 18% height = 32% style = 'position:absolute;top:10%;left:25%'>
    <img id = 'img_b2' width = 18% height = 32% style = 'position:absolute;top:10%;right:25%'>
    <img id = 'img_b3' width = 18% height = 32% style = 'position:absolute;bottom:10%;left:25%'>
    <img id = 'img_b4' width = 18% height = 32% style = 'position:absolute;bottom:10%;right:25%'>
    <div id = 'band_txt'></div>
    <div id = 'cum' style = 'position:absolute;top:5%;right:5%;font-size:calc(18px + 6 * ((100vw - 320px) / 680))'></div>
  ","""","""","""","""","""","""","""","""","""","2021-05-05 18:31:23",106.207.218.136,"Mozilla/5.0 (Windows NT 10.0; Win64; x64) AppleWebKit/537.36 (KHTML, like Gecko) Chrome/89.0.4389.128 Safari/537.36",WebKit,Chrome,89.0.4389.128,Windows,10.0
73,1,null,null,html-keyboard-response,95,158617,0.0-95.0,IwAR2pJTeDT4DB71RN69Vwx4iCv9FdPbZVZH7ZII6w7T5KWhtH_EUPesQFJnM,"<div style=""font-size:60px;"">+</div>","""","""","""","""","""","""","""","""","""","2021-05-05 18:31:23",106.207.218.136,"Mozilla/5.0 (Windows NT 10.0; Win64; x64) AppleWebKit/537.36 (KHTML, like Gecko) Chrome/89.0.4389.128 Safari/537.36",WebKit,Chrome,89.0.4389.128,Windows,10.0
73,1,318.3600001502782,q,html-keyboard-response,96,158937,0.0-96.0,IwAR2pJTeDT4DB71RN69Vwx4iCv9FdPbZVZH7ZII6w7T5KWhtH_EUPesQFJnM,"
    <img id = 'img_b1' width = 18% height = 32% style = 'position:absolute;top:10%;left:25%'>
    <img id = 'img_b2' width = 18% height = 32% style = 'position:absolute;top:10%;right:25%'>
    <img id = 'img_b3' width = 18% height = 32% style = 'position:absolute;bottom:10%;left:25%'>
    <img id = 'img_b4' width = 18% height = 32% style = 'position:absolute;bottom:10%;right:25%'>
    <div id = 'cum' style = 'position:absolute;top:5%;right:5%;font-size:calc(18px + 6 * ((100vw - 320px) / 680))'></div>
  ","""","""","""","""","""","""","""","""","""","2021-05-05 18:31:23",106.207.218.136,"Mozilla/5.0 (Windows NT 10.0; Win64; x64) AppleWebKit/537.36 (KHTML, like Gecko) Chrome/89.0.4389.128 Safari/537.36",WebKit,Chrome,89.0.4389.128,Windows,10.0
73,1,null,null,html-keyboard-response,97,160448,0.0-97.0,IwAR2pJTeDT4DB71RN69Vwx4iCv9FdPbZVZH7ZII6w7T5KWhtH_EUPesQFJnM,"
    <img id = 'img_b1' width = 18% height = 32% style = 'position:absolute;top:10%;left:25%'>
    <img id = 'img_b2' width = 18% height = 32% style = 'position:absolute;top:10%;right:25%'>
    <img id = 'img_b3' width = 18% height = 32% style = 'position:absolute;bottom:10%;left:25%'>
    <img id = 'img_b4' width = 18% height = 32% style = 'position:absolute;bottom:10%;right:25%'>
    <div id = 'band_txt'></div>
    <div id = 'cum' style = 'position:absolute;top:5%;right:5%;font-size:calc(18px + 6 * ((100vw - 320px) / 680))'></div>
  ","""","""","""","""","""","""","""","""","""","2021-05-05 18:31:23",106.207.218.136,"Mozilla/5.0 (Windows NT 10.0; Win64; x64) AppleWebKit/537.36 (KHTML, like Gecko) Chrome/89.0.4389.128 Safari/537.36",WebKit,Chrome,89.0.4389.128,Windows,10.0
73,1,null,null,html-keyboard-response,98,161210,0.0-98.0,IwAR2pJTeDT4DB71RN69Vwx4iCv9FdPbZVZH7ZII6w7T5KWhtH_EUPesQFJnM,"<div style=""font-size:60px;"">+</div>","""","""","""","""","""","""","""","""","""","2021-05-05 18:31:23",106.207.218.136,"Mozilla/5.0 (Windows NT 10.0; Win64; x64) AppleWebKit/537.36 (KHTML, like Gecko) Chrome/89.0.4389.128 Safari/537.36",WebKit,Chrome,89.0.4389.128,Windows,10.0
73,1,979.1800000239164,q,html-keyboard-response,99,162192,0.0-99.0,IwAR2pJTeDT4DB71RN69Vwx4iCv9FdPbZVZH7ZII6w7T5KWhtH_EUPesQFJnM,"
    <img id = 'img_b1' width = 18% height = 32% style = 'position:absolute;top:10%;left:25%'>
    <img id = 'img_b2' width = 18% height = 32% style = 'position:absolute;top:10%;right:25%'>
    <img id = 'img_b3' width = 18% height = 32% style = 'position:absolute;bottom:10%;left:25%'>
    <img id = 'img_b4' width = 18% height = 32% style = 'position:absolute;bottom:10%;right:25%'>
    <div id = 'cum' style = 'position:absolute;top:5%;right:5%;font-size:calc(18px + 6 * ((100vw - 320px) / 680))'></div>
  ","""","""","""","""","""","""","""","""","""","2021-05-05 18:31:23",106.207.218.136,"Mozilla/5.0 (Windows NT 10.0; Win64; x64) AppleWebKit/537.36 (KHTML, like Gecko) Chrome/89.0.4389.128 Safari/537.36",WebKit,Chrome,89.0.4389.128,Windows,10.0
73,1,null,null,html-keyboard-response,100,163708,0.0-100.0,IwAR2pJTeDT4DB71RN69Vwx4iCv9FdPbZVZH7ZII6w7T5KWhtH_EUPesQFJnM,"
    <img id = 'img_b1' width = 18% height = 32% style = 'position:absolute;top:10%;left:25%'>
    <img id = 'img_b2' width = 18% height = 32% style = 'position:absolute;top:10%;right:25%'>
    <img id = 'img_b3' width = 18% height = 32% style = 'position:absolute;bottom:10%;left:25%'>
    <img id = 'img_b4' width = 18% height = 32% style = 'position:absolute;bottom:10%;right:25%'>
    <div id = 'band_txt'></div>
    <div id = 'cum' style = 'position:absolute;top:5%;right:5%;font-size:calc(18px + 6 * ((100vw - 320px) / 680))'></div>
  ","""","""","""","""","""","""","""","""","""","2021-05-05 18:31:23",106.207.218.136,"Mozilla/5.0 (Windows NT 10.0; Win64; x64) AppleWebKit/537.36 (KHTML, like Gecko) Chrome/89.0.4389.128 Safari/537.36",WebKit,Chrome,89.0.4389.128,Windows,10.0
73,1,null,null,html-keyboard-response,101,164467,0.0-101.0,IwAR2pJTeDT4DB71RN69Vwx4iCv9FdPbZVZH7ZII6w7T5KWhtH_EUPesQFJnM,"<div style=""font-size:60px;"">+</div>","""","""","""","""","""","""","""","""","""","2021-05-05 18:31:23",106.207.218.136,"Mozilla/5.0 (Windows NT 10.0; Win64; x64) AppleWebKit/537.36 (KHTML, like Gecko) Chrome/89.0.4389.128 Safari/537.36",WebKit,Chrome,89.0.4389.128,Windows,10.0
73,1,1242.015000199899,q,html-keyboard-response,102,165718,0.0-102.0,IwAR2pJTeDT4DB71RN69Vwx4iCv9FdPbZVZH7ZII6w7T5KWhtH_EUPesQFJnM,"
    <img id = 'img_b1' width = 18% height = 32% style = 'position:absolute;top:10%;left:25%'>
    <img id = 'img_b2' width = 18% height = 32% style = 'position:absolute;top:10%;right:25%'>
    <img id = 'img_b3' width = 18% height = 32% style = 'position:absolute;bottom:10%;left:25%'>
    <img id = 'img_b4' width = 18% height = 32% style = 'position:absolute;bottom:10%;right:25%'>
    <div id = 'cum' style = 'position:absolute;top:5%;right:5%;font-size:calc(18px + 6 * ((100vw - 320px) / 680))'></div>
  ","""","""","""","""","""","""","""","""","""","2021-05-05 18:31:23",106.207.218.136,"Mozilla/5.0 (Windows NT 10.0; Win64; x64) AppleWebKit/537.36 (KHTML, like Gecko) Chrome/89.0.4389.128 Safari/537.36",WebKit,Chrome,89.0.4389.128,Windows,10.0
73,1,null,null,html-keyboard-response,103,167222,0.0-103.0,IwAR2pJTeDT4DB71RN69Vwx4iCv9FdPbZVZH7ZII6w7T5KWhtH_EUPesQFJnM,"
    <img id = 'img_b1' width = 18% height = 32% style = 'position:absolute;top:10%;left:25%'>
    <img id = 'img_b2' width = 18% height = 32% style = 'position:absolute;top:10%;right:25%'>
    <img id = 'img_b3' width = 18% height = 32% style = 'position:absolute;bottom:10%;left:25%'>
    <img id = 'img_b4' width = 18% height = 32% style = 'position:absolute;bottom:10%;right:25%'>
    <div id = 'band_txt'></div>
    <div id = 'cum' style = 'position:absolute;top:5%;right:5%;font-size:calc(18px + 6 * ((100vw - 320px) / 680))'></div>
  ","""","""","""","""","""","""","""","""","""","2021-05-05 18:31:23",106.207.218.136,"Mozilla/5.0 (Windows NT 10.0; Win64; x64) AppleWebKit/537.36 (KHTML, like Gecko) Chrome/89.0.4389.128 Safari/537.36",WebKit,Chrome,89.0.4389.128,Windows,10.0
73,1,null,null,html-keyboard-response,104,168723,0.0-104.0,IwAR2pJTeDT4DB71RN69Vwx4iCv9FdPbZVZH7ZII6w7T5KWhtH_EUPesQFJnM,"<div style=""font-size:60px;"">+</div>","""","""","""","""","""","""","""","""","""","2021-05-05 18:31:23",106.207.218.136,"Mozilla/5.0 (Windows NT 10.0; Win64; x64) AppleWebKit/537.36 (KHTML, like Gecko) Chrome/89.0.4389.128 Safari/537.36",WebKit,Chrome,89.0.4389.128,Windows,10.0
73,1,397.98999996855855,p,html-keyboard-response,105,169123,0.0-105.0,IwAR2pJTeDT4DB71RN69Vwx4iCv9FdPbZVZH7ZII6w7T5KWhtH_EUPesQFJnM,"
    <img id = 'img_b1' width = 18% height = 32% style = 'position:absolute;top:10%;left:25%'>
    <img id = 'img_b2' width = 18% height = 32% style = 'position:absolute;top:10%;right:25%'>
    <img id = 'img_b3' width = 18% height = 32% style = 'position:absolute;bottom:10%;left:25%'>
    <img id = 'img_b4' width = 18% height = 32% style = 'position:absolute;bottom:10%;right:25%'>
    <div id = 'cum' style = 'position:absolute;top:5%;right:5%;font-size:calc(18px + 6 * ((100vw - 320px) / 680))'></div>
  ","""","""","""","""","""","""","""","""","""","2021-05-05 18:31:23",106.207.218.136,"Mozilla/5.0 (Windows NT 10.0; Win64; x64) AppleWebKit/537.36 (KHTML, like Gecko) Chrome/89.0.4389.128 Safari/537.36",WebKit,Chrome,89.0.4389.128,Windows,10.0
73,1,null,null,html-keyboard-response,106,170632,0.0-106.0,IwAR2pJTeDT4DB71RN69Vwx4iCv9FdPbZVZH7ZII6w7T5KWhtH_EUPesQFJnM,"
    <img id = 'img_b1' width = 18% height = 32% style = 'position:absolute;top:10%;left:25%'>
    <img id = 'img_b2' width = 18% height = 32% style = 'position:absolute;top:10%;right:25%'>
    <img id = 'img_b3' width = 18% height = 32% style = 'position:absolute;bottom:10%;left:25%'>
    <img id = 'img_b4' width = 18% height = 32% style = 'position:absolute;bottom:10%;right:25%'>
    <div id = 'band_txt'></div>
    <div id = 'cum' style = 'position:absolute;top:5%;right:5%;font-size:calc(18px + 6 * ((100vw - 320px) / 680))'></div>
  ","""","""","""","""","""","""","""","""","""","2021-05-05 18:31:23",106.207.218.136,"Mozilla/5.0 (Windows NT 10.0; Win64; x64) AppleWebKit/537.36 (KHTML, like Gecko) Chrome/89.0.4389.128 Safari/537.36",WebKit,Chrome,89.0.4389.128,Windows,10.0
73,1,null,null,html-keyboard-response,107,171892,0.0-107.0,IwAR2pJTeDT4DB71RN69Vwx4iCv9FdPbZVZH7ZII6w7T5KWhtH_EUPesQFJnM,"<div style=""font-size:60px;"">+</div>","""","""","""","""","""","""","""","""","""","2021-05-05 18:31:23",106.207.218.136,"Mozilla/5.0 (Windows NT 10.0; Win64; x64) AppleWebKit/537.36 (KHTML, like Gecko) Chrome/89.0.4389.128 Safari/537.36",WebKit,Chrome,89.0.4389.128,Windows,10.0
73,1,368.69999999180436,m,html-keyboard-response,108,172263,0.0-108.0,IwAR2pJTeDT4DB71RN69Vwx4iCv9FdPbZVZH7ZII6w7T5KWhtH_EUPesQFJnM,"
    <img id = 'img_b1' width = 18% height = 32% style = 'position:absolute;top:10%;left:25%'>
    <img id = 'img_b2' width = 18% height = 32% style = 'position:absolute;top:10%;right:25%'>
    <img id = 'img_b3' width = 18% height = 32% style = 'position:absolute;bottom:10%;left:25%'>
    <img id = 'img_b4' width = 18% height = 32% style = 'position:absolute;bottom:10%;right:25%'>
    <div id = 'cum' style = 'position:absolute;top:5%;right:5%;font-size:calc(18px + 6 * ((100vw - 320px) / 680))'></div>
  ","""","""","""","""","""","""","""","""","""","2021-05-05 18:31:23",106.207.218.136,"Mozilla/5.0 (Windows NT 10.0; Win64; x64) AppleWebKit/537.36 (KHTML, like Gecko) Chrome/89.0.4389.128 Safari/537.36",WebKit,Chrome,89.0.4389.128,Windows,10.0
73,1,null,null,html-keyboard-response,109,173782,0.0-109.0,IwAR2pJTeDT4DB71RN69Vwx4iCv9FdPbZVZH7ZII6w7T5KWhtH_EUPesQFJnM,"
    <img id = 'img_b1' width = 18% height = 32% style = 'position:absolute;top:10%;left:25%'>
    <img id = 'img_b2' width = 18% height = 32% style = 'position:absolute;top:10%;right:25%'>
    <img id = 'img_b3' width = 18% height = 32% style = 'position:absolute;bottom:10%;left:25%'>
    <img id = 'img_b4' width = 18% height = 32% style = 'position:absolute;bottom:10%;right:25%'>
    <div id = 'band_txt'></div>
    <div id = 'cum' style = 'position:absolute;top:5%;right:5%;font-size:calc(18px + 6 * ((100vw - 320px) / 680))'></div>
  ","""","""","""","""","""","""","""","""","""","2021-05-05 18:31:23",106.207.218.136,"Mozilla/5.0 (Windows NT 10.0; Win64; x64) AppleWebKit/537.36 (KHTML, like Gecko) Chrome/89.0.4389.128 Safari/537.36",WebKit,Chrome,89.0.4389.128,Windows,10.0
73,1,null,null,html-keyboard-response,110,175537,0.0-110.0,IwAR2pJTeDT4DB71RN69Vwx4iCv9FdPbZVZH7ZII6w7T5KWhtH_EUPesQFJnM,"<div style=""font-size:60px;"">+</div>","""","""","""","""","""","""","""","""","""","2021-05-05 18:31:23",106.207.218.136,"Mozilla/5.0 (Windows NT 10.0; Win64; x64) AppleWebKit/537.36 (KHTML, like Gecko) Chrome/89.0.4389.128 Safari/537.36",WebKit,Chrome,89.0.4389.128,Windows,10.0
73,1,261.3350001629442,z,html-keyboard-response,111,175801,0.0-111.0,IwAR2pJTeDT4DB71RN69Vwx4iCv9FdPbZVZH7ZII6w7T5KWhtH_EUPesQFJnM,"
    <img id = 'img_b1' width = 18% height = 32% style = 'position:absolute;top:10%;left:25%'>
    <img id = 'img_b2' width = 18% height = 32% style = 'position:absolute;top:10%;right:25%'>
    <img id = 'img_b3' width = 18% height = 32% style = 'position:absolute;bottom:10%;left:25%'>
    <img id = 'img_b4' width = 18% height = 32% style = 'position:absolute;bottom:10%;right:25%'>
    <div id = 'cum' style = 'position:absolute;top:5%;right:5%;font-size:calc(18px + 6 * ((100vw - 320px) / 680))'></div>
  ","""","""","""","""","""","""","""","""","""","2021-05-05 18:31:23",106.207.218.136,"Mozilla/5.0 (Windows NT 10.0; Win64; x64) AppleWebKit/537.36 (KHTML, like Gecko) Chrome/89.0.4389.128 Safari/537.36",WebKit,Chrome,89.0.4389.128,Windows,10.0
73,1,null,null,html-keyboard-response,112,177306,0.0-112.0,IwAR2pJTeDT4DB71RN69Vwx4iCv9FdPbZVZH7ZII6w7T5KWhtH_EUPesQFJnM,"
    <img id = 'img_b1' width = 18% height = 32% style = 'position:absolute;top:10%;left:25%'>
    <img id = 'img_b2' width = 18% height = 32% style = 'position:absolute;top:10%;right:25%'>
    <img id = 'img_b3' width = 18% height = 32% style = 'position:absolute;bottom:10%;left:25%'>
    <img id = 'img_b4' width = 18% height = 32% style = 'position:absolute;bottom:10%;right:25%'>
    <div id = 'band_txt'></div>
    <div id = 'cum' style = 'position:absolute;top:5%;right:5%;font-size:calc(18px + 6 * ((100vw - 320px) / 680))'></div>
  ","""","""","""","""","""","""","""","""","""","2021-05-05 18:31:23",106.207.218.136,"Mozilla/5.0 (Windows NT 10.0; Win64; x64) AppleWebKit/537.36 (KHTML, like Gecko) Chrome/89.0.4389.128 Safari/537.36",WebKit,Chrome,89.0.4389.128,Windows,10.0
73,1,null,null,html-keyboard-response,113,178065,0.0-113.0,IwAR2pJTeDT4DB71RN69Vwx4iCv9FdPbZVZH7ZII6w7T5KWhtH_EUPesQFJnM,"<div style=""font-size:60px;"">+</div>","""","""","""","""","""","""","""","""","""","2021-05-05 18:31:23",106.207.218.136,"Mozilla/5.0 (Windows NT 10.0; Win64; x64) AppleWebKit/537.36 (KHTML, like Gecko) Chrome/89.0.4389.128 Safari/537.36",WebKit,Chrome,89.0.4389.128,Windows,10.0
73,1,254.13000001572073,q,html-keyboard-response,114,178321,0.0-114.0,IwAR2pJTeDT4DB71RN69Vwx4iCv9FdPbZVZH7ZII6w7T5KWhtH_EUPesQFJnM,"
    <img id = 'img_b1' width = 18% height = 32% style = 'position:absolute;top:10%;left:25%'>
    <img id = 'img_b2' width = 18% height = 32% style = 'position:absolute;top:10%;right:25%'>
    <img id = 'img_b3' width = 18% height = 32% style = 'position:absolute;bottom:10%;left:25%'>
    <img id = 'img_b4' width = 18% height = 32% style = 'position:absolute;bottom:10%;right:25%'>
    <div id = 'cum' style = 'position:absolute;top:5%;right:5%;font-size:calc(18px + 6 * ((100vw - 320px) / 680))'></div>
  ","""","""","""","""","""","""","""","""","""","2021-05-05 18:31:23",106.207.218.136,"Mozilla/5.0 (Windows NT 10.0; Win64; x64) AppleWebKit/537.36 (KHTML, like Gecko) Chrome/89.0.4389.128 Safari/537.36",WebKit,Chrome,89.0.4389.128,Windows,10.0
73,1,null,null,html-keyboard-response,115,179835,0.0-115.0,IwAR2pJTeDT4DB71RN69Vwx4iCv9FdPbZVZH7ZII6w7T5KWhtH_EUPesQFJnM,"
    <img id = 'img_b1' width = 18% height = 32% style = 'position:absolute;top:10%;left:25%'>
    <img id = 'img_b2' width = 18% height = 32% style = 'position:absolute;top:10%;right:25%'>
    <img id = 'img_b3' width = 18% height = 32% style = 'position:absolute;bottom:10%;left:25%'>
    <img id = 'img_b4' width = 18% height = 32% style = 'position:absolute;bottom:10%;right:25%'>
    <div id = 'band_txt'></div>
    <div id = 'cum' style = 'position:absolute;top:5%;right:5%;font-size:calc(18px + 6 * ((100vw - 320px) / 680))'></div>
  ","""","""","""","""","""","""","""","""","""","2021-05-05 18:31:23",106.207.218.136,"Mozilla/5.0 (Windows NT 10.0; Win64; x64) AppleWebKit/537.36 (KHTML, like Gecko) Chrome/89.0.4389.128 Safari/537.36",WebKit,Chrome,89.0.4389.128,Windows,10.0
73,1,null,null,html-keyboard-response,116,180842,0.0-116.0,IwAR2pJTeDT4DB71RN69Vwx4iCv9FdPbZVZH7ZII6w7T5KWhtH_EUPesQFJnM,"<div style=""font-size:60px;"">+</div>","""","""","""","""","""","""","""","""","""","2021-05-05 18:31:23",106.207.218.136,"Mozilla/5.0 (Windows NT 10.0; Win64; x64) AppleWebKit/537.36 (KHTML, like Gecko) Chrome/89.0.4389.128 Safari/537.36",WebKit,Chrome,89.0.4389.128,Windows,10.0
73,1,282.89499995298684,q,html-keyboard-response,117,181127,0.0-117.0,IwAR2pJTeDT4DB71RN69Vwx4iCv9FdPbZVZH7ZII6w7T5KWhtH_EUPesQFJnM,"
    <img id = 'img_b1' width = 18% height = 32% style = 'position:absolute;top:10%;left:25%'>
    <img id = 'img_b2' width = 18% height = 32% style = 'position:absolute;top:10%;right:25%'>
    <img id = 'img_b3' width = 18% height = 32% style = 'position:absolute;bottom:10%;left:25%'>
    <img id = 'img_b4' width = 18% height = 32% style = 'position:absolute;bottom:10%;right:25%'>
    <div id = 'cum' style = 'position:absolute;top:5%;right:5%;font-size:calc(18px + 6 * ((100vw - 320px) / 680))'></div>
  ","""","""","""","""","""","""","""","""","""","2021-05-05 18:31:23",106.207.218.136,"Mozilla/5.0 (Windows NT 10.0; Win64; x64) AppleWebKit/537.36 (KHTML, like Gecko) Chrome/89.0.4389.128 Safari/537.36",WebKit,Chrome,89.0.4389.128,Windows,10.0
73,1,null,null,html-keyboard-response,118,182643,0.0-118.0,IwAR2pJTeDT4DB71RN69Vwx4iCv9FdPbZVZH7ZII6w7T5KWhtH_EUPesQFJnM,"
    <img id = 'img_b1' width = 18% height = 32% style = 'position:absolute;top:10%;left:25%'>
    <img id = 'img_b2' width = 18% height = 32% style = 'position:absolute;top:10%;right:25%'>
    <img id = 'img_b3' width = 18% height = 32% style = 'position:absolute;bottom:10%;left:25%'>
    <img id = 'img_b4' width = 18% height = 32% style = 'position:absolute;bottom:10%;right:25%'>
    <div id = 'band_txt'></div>
    <div id = 'cum' style = 'position:absolute;top:5%;right:5%;font-size:calc(18px + 6 * ((100vw - 320px) / 680))'></div>
  ","""","""","""","""","""","""","""","""","""","2021-05-05 18:31:23",106.207.218.136,"Mozilla/5.0 (Windows NT 10.0; Win64; x64) AppleWebKit/537.36 (KHTML, like Gecko) Chrome/89.0.4389.128 Safari/537.36",WebKit,Chrome,89.0.4389.128,Windows,10.0
73,1,null,null,html-keyboard-response,119,183909,0.0-119.0,IwAR2pJTeDT4DB71RN69Vwx4iCv9FdPbZVZH7ZII6w7T5KWhtH_EUPesQFJnM,"<div style=""font-size:60px;"">+</div>","""","""","""","""","""","""","""","""","""","2021-05-05 18:31:23",106.207.218.136,"Mozilla/5.0 (Windows NT 10.0; Win64; x64) AppleWebKit/537.36 (KHTML, like Gecko) Chrome/89.0.4389.128 Safari/537.36",WebKit,Chrome,89.0.4389.128,Windows,10.0
73,1,254.04500006698072,q,html-keyboard-response,120,184165,0.0-120.0,IwAR2pJTeDT4DB71RN69Vwx4iCv9FdPbZVZH7ZII6w7T5KWhtH_EUPesQFJnM,"
    <img id = 'img_b1' width = 18% height = 32% style = 'position:absolute;top:10%;left:25%'>
    <img id = 'img_b2' width = 18% height = 32% style = 'position:absolute;top:10%;right:25%'>
    <img id = 'img_b3' width = 18% height = 32% style = 'position:absolute;bottom:10%;left:25%'>
    <img id = 'img_b4' width = 18% height = 32% style = 'position:absolute;bottom:10%;right:25%'>
    <div id = 'cum' style = 'position:absolute;top:5%;right:5%;font-size:calc(18px + 6 * ((100vw - 320px) / 680))'></div>
  ","""","""","""","""","""","""","""","""","""","2021-05-05 18:31:23",106.207.218.136,"Mozilla/5.0 (Windows NT 10.0; Win64; x64) AppleWebKit/537.36 (KHTML, like Gecko) Chrome/89.0.4389.128 Safari/537.36",WebKit,Chrome,89.0.4389.128,Windows,10.0
73,1,null,null,html-keyboard-response,121,185673,0.0-121.0,IwAR2pJTeDT4DB71RN69Vwx4iCv9FdPbZVZH7ZII6w7T5KWhtH_EUPesQFJnM,"
    <img id = 'img_b1' width = 18% height = 32% style = 'position:absolute;top:10%;left:25%'>
    <img id = 'img_b2' width = 18% height = 32% style = 'position:absolute;top:10%;right:25%'>
    <img id = 'img_b3' width = 18% height = 32% style = 'position:absolute;bottom:10%;left:25%'>
    <img id = 'img_b4' width = 18% height = 32% style = 'position:absolute;bottom:10%;right:25%'>
    <div id = 'band_txt'></div>
    <div id = 'cum' style = 'position:absolute;top:5%;right:5%;font-size:calc(18px + 6 * ((100vw - 320px) / 680))'></div>
  ","""","""","""","""","""","""","""","""","""","2021-05-05 18:31:23",106.207.218.136,"Mozilla/5.0 (Windows NT 10.0; Win64; x64) AppleWebKit/537.36 (KHTML, like Gecko) Chrome/89.0.4389.128 Safari/537.36",WebKit,Chrome,89.0.4389.128,Windows,10.0
73,1,null,null,html-keyboard-response,122,186431,0.0-122.0,IwAR2pJTeDT4DB71RN69Vwx4iCv9FdPbZVZH7ZII6w7T5KWhtH_EUPesQFJnM,"<div style=""font-size:60px;"">+</div>","""","""","""","""","""","""","""","""","""","2021-05-05 18:31:23",106.207.218.136,"Mozilla/5.0 (Windows NT 10.0; Win64; x64) AppleWebKit/537.36 (KHTML, like Gecko) Chrome/89.0.4389.128 Safari/537.36",WebKit,Chrome,89.0.4389.128,Windows,10.0
73,1,424.7899998445064,m,html-keyboard-response,123,186857,0.0-123.0,IwAR2pJTeDT4DB71RN69Vwx4iCv9FdPbZVZH7ZII6w7T5KWhtH_EUPesQFJnM,"
    <img id = 'img_b1' width = 18% height = 32% style = 'position:absolute;top:10%;left:25%'>
    <img id = 'img_b2' width = 18% height = 32% style = 'position:absolute;top:10%;right:25%'>
    <img id = 'img_b3' width = 18% height = 32% style = 'position:absolute;bottom:10%;left:25%'>
    <img id = 'img_b4' width = 18% height = 32% style = 'position:absolute;bottom:10%;right:25%'>
    <div id = 'cum' style = 'position:absolute;top:5%;right:5%;font-size:calc(18px + 6 * ((100vw - 320px) / 680))'></div>
  ","""","""","""","""","""","""","""","""","""","2021-05-05 18:31:23",106.207.218.136,"Mozilla/5.0 (Windows NT 10.0; Win64; x64) AppleWebKit/537.36 (KHTML, like Gecko) Chrome/89.0.4389.128 Safari/537.36",WebKit,Chrome,89.0.4389.128,Windows,10.0
73,1,null,null,html-keyboard-response,124,188370,0.0-124.0,IwAR2pJTeDT4DB71RN69Vwx4iCv9FdPbZVZH7ZII6w7T5KWhtH_EUPesQFJnM,"
    <img id = 'img_b1' width = 18% height = 32% style = 'position:absolute;top:10%;left:25%'>
    <img id = 'img_b2' width = 18% height = 32% style = 'position:absolute;top:10%;right:25%'>
    <img id = 'img_b3' width = 18% height = 32% style = 'position:absolute;bottom:10%;left:25%'>
    <img id = 'img_b4' width = 18% height = 32% style = 'position:absolute;bottom:10%;right:25%'>
    <div id = 'band_txt'></div>
    <div id = 'cum' style = 'position:absolute;top:5%;right:5%;font-size:calc(18px + 6 * ((100vw - 320px) / 680))'></div>
  ","""","""","""","""","""","""","""","""","""","2021-05-05 18:31:23",106.207.218.136,"Mozilla/5.0 (Windows NT 10.0; Win64; x64) AppleWebKit/537.36 (KHTML, like Gecko) Chrome/89.0.4389.128 Safari/537.36",WebKit,Chrome,89.0.4389.128,Windows,10.0
73,1,null,null,html-keyboard-response,125,189125,0.0-125.0,IwAR2pJTeDT4DB71RN69Vwx4iCv9FdPbZVZH7ZII6w7T5KWhtH_EUPesQFJnM,"<div style=""font-size:60px;"">+</div>","""","""","""","""","""","""","""","""","""","2021-05-05 18:31:23",106.207.218.136,"Mozilla/5.0 (Windows NT 10.0; Win64; x64) AppleWebKit/537.36 (KHTML, like Gecko) Chrome/89.0.4389.128 Safari/537.36",WebKit,Chrome,89.0.4389.128,Windows,10.0
73,1,254.45500016212463,q,html-keyboard-response,126,189382,0.0-126.0,IwAR2pJTeDT4DB71RN69Vwx4iCv9FdPbZVZH7ZII6w7T5KWhtH_EUPesQFJnM,"
    <img id = 'img_b1' width = 18% height = 32% style = 'position:absolute;top:10%;left:25%'>
    <img id = 'img_b2' width = 18% height = 32% style = 'position:absolute;top:10%;right:25%'>
    <img id = 'img_b3' width = 18% height = 32% style = 'position:absolute;bottom:10%;left:25%'>
    <img id = 'img_b4' width = 18% height = 32% style = 'position:absolute;bottom:10%;right:25%'>
    <div id = 'cum' style = 'position:absolute;top:5%;right:5%;font-size:calc(18px + 6 * ((100vw - 320px) / 680))'></div>
  ","""","""","""","""","""","""","""","""","""","2021-05-05 18:31:23",106.207.218.136,"Mozilla/5.0 (Windows NT 10.0; Win64; x64) AppleWebKit/537.36 (KHTML, like Gecko) Chrome/89.0.4389.128 Safari/537.36",WebKit,Chrome,89.0.4389.128,Windows,10.0
73,1,null,null,html-keyboard-response,127,190894,0.0-127.0,IwAR2pJTeDT4DB71RN69Vwx4iCv9FdPbZVZH7ZII6w7T5KWhtH_EUPesQFJnM,"
    <img id = 'img_b1' width = 18% height = 32% style = 'position:absolute;top:10%;left:25%'>
    <img id = 'img_b2' width = 18% height = 32% style = 'position:absolute;top:10%;right:25%'>
    <img id = 'img_b3' width = 18% height = 32% style = 'position:absolute;bottom:10%;left:25%'>
    <img id = 'img_b4' width = 18% height = 32% style = 'position:absolute;bottom:10%;right:25%'>
    <div id = 'band_txt'></div>
    <div id = 'cum' style = 'position:absolute;top:5%;right:5%;font-size:calc(18px + 6 * ((100vw - 320px) / 680))'></div>
  ","""","""","""","""","""","""","""","""","""","2021-05-05 18:31:23",106.207.218.136,"Mozilla/5.0 (Windows NT 10.0; Win64; x64) AppleWebKit/537.36 (KHTML, like Gecko) Chrome/89.0.4389.128 Safari/537.36",WebKit,Chrome,89.0.4389.128,Windows,10.0
73,1,null,null,html-keyboard-response,128,191906,0.0-128.0,IwAR2pJTeDT4DB71RN69Vwx4iCv9FdPbZVZH7ZII6w7T5KWhtH_EUPesQFJnM,"<div style=""font-size:60px;"">+</div>","""","""","""","""","""","""","""","""","""","2021-05-05 18:31:23",106.207.218.136,"Mozilla/5.0 (Windows NT 10.0; Win64; x64) AppleWebKit/537.36 (KHTML, like Gecko) Chrome/89.0.4389.128 Safari/537.36",WebKit,Chrome,89.0.4389.128,Windows,10.0
73,1,233.0449998844415,q,html-keyboard-response,129,192141,0.0-129.0,IwAR2pJTeDT4DB71RN69Vwx4iCv9FdPbZVZH7ZII6w7T5KWhtH_EUPesQFJnM,"
    <img id = 'img_b1' width = 18% height = 32% style = 'position:absolute;top:10%;left:25%'>
    <img id = 'img_b2' width = 18% height = 32% style = 'position:absolute;top:10%;right:25%'>
    <img id = 'img_b3' width = 18% height = 32% style = 'position:absolute;bottom:10%;left:25%'>
    <img id = 'img_b4' width = 18% height = 32% style = 'position:absolute;bottom:10%;right:25%'>
    <div id = 'cum' style = 'position:absolute;top:5%;right:5%;font-size:calc(18px + 6 * ((100vw - 320px) / 680))'></div>
  ","""","""","""","""","""","""","""","""","""","2021-05-05 18:31:23",106.207.218.136,"Mozilla/5.0 (Windows NT 10.0; Win64; x64) AppleWebKit/537.36 (KHTML, like Gecko) Chrome/89.0.4389.128 Safari/537.36",WebKit,Chrome,89.0.4389.128,Windows,10.0
73,1,null,null,html-keyboard-response,130,193658,0.0-130.0,IwAR2pJTeDT4DB71RN69Vwx4iCv9FdPbZVZH7ZII6w7T5KWhtH_EUPesQFJnM,"
    <img id = 'img_b1' width = 18% height = 32% style = 'position:absolute;top:10%;left:25%'>
    <img id = 'img_b2' width = 18% height = 32% style = 'position:absolute;top:10%;right:25%'>
    <img id = 'img_b3' width = 18% height = 32% style = 'position:absolute;bottom:10%;left:25%'>
    <img id = 'img_b4' width = 18% height = 32% style = 'position:absolute;bottom:10%;right:25%'>
    <div id = 'band_txt'></div>
    <div id = 'cum' style = 'position:absolute;top:5%;right:5%;font-size:calc(18px + 6 * ((100vw - 320px) / 680))'></div>
  ","""","""","""","""","""","""","""","""","""","2021-05-05 18:31:23",106.207.218.136,"Mozilla/5.0 (Windows NT 10.0; Win64; x64) AppleWebKit/537.36 (KHTML, like Gecko) Chrome/89.0.4389.128 Safari/537.36",WebKit,Chrome,89.0.4389.128,Windows,10.0
73,1,null,null,html-keyboard-response,131,195411,0.0-131.0,IwAR2pJTeDT4DB71RN69Vwx4iCv9FdPbZVZH7ZII6w7T5KWhtH_EUPesQFJnM,"<div style=""font-size:60px;"">+</div>","""","""","""","""","""","""","""","""","""","2021-05-05 18:31:23",106.207.218.136,"Mozilla/5.0 (Windows NT 10.0; Win64; x64) AppleWebKit/537.36 (KHTML, like Gecko) Chrome/89.0.4389.128 Safari/537.36",WebKit,Chrome,89.0.4389.128,Windows,10.0
73,1,240.46500003896654,p,html-keyboard-response,132,195654,0.0-132.0,IwAR2pJTeDT4DB71RN69Vwx4iCv9FdPbZVZH7ZII6w7T5KWhtH_EUPesQFJnM,"
    <img id = 'img_b1' width = 18% height = 32% style = 'position:absolute;top:10%;left:25%'>
    <img id = 'img_b2' width = 18% height = 32% style = 'position:absolute;top:10%;right:25%'>
    <img id = 'img_b3' width = 18% height = 32% style = 'position:absolute;bottom:10%;left:25%'>
    <img id = 'img_b4' width = 18% height = 32% style = 'position:absolute;bottom:10%;right:25%'>
    <div id = 'cum' style = 'position:absolute;top:5%;right:5%;font-size:calc(18px + 6 * ((100vw - 320px) / 680))'></div>
  ","""","""","""","""","""","""","""","""","""","2021-05-05 18:31:23",106.207.218.136,"Mozilla/5.0 (Windows NT 10.0; Win64; x64) AppleWebKit/537.36 (KHTML, like Gecko) Chrome/89.0.4389.128 Safari/537.36",WebKit,Chrome,89.0.4389.128,Windows,10.0
73,1,null,null,html-keyboard-response,133,197168,0.0-133.0,IwAR2pJTeDT4DB71RN69Vwx4iCv9FdPbZVZH7ZII6w7T5KWhtH_EUPesQFJnM,"
    <img id = 'img_b1' width = 18% height = 32% style = 'position:absolute;top:10%;left:25%'>
    <img id = 'img_b2' width = 18% height = 32% style = 'position:absolute;top:10%;right:25%'>
    <img id = 'img_b3' width = 18% height = 32% style = 'position:absolute;bottom:10%;left:25%'>
    <img id = 'img_b4' width = 18% height = 32% style = 'position:absolute;bottom:10%;right:25%'>
    <div id = 'band_txt'></div>
    <div id = 'cum' style = 'position:absolute;top:5%;right:5%;font-size:calc(18px + 6 * ((100vw - 320px) / 680))'></div>
  ","""","""","""","""","""","""","""","""","""","2021-05-05 18:31:23",106.207.218.136,"Mozilla/5.0 (Windows NT 10.0; Win64; x64) AppleWebKit/537.36 (KHTML, like Gecko) Chrome/89.0.4389.128 Safari/537.36",WebKit,Chrome,89.0.4389.128,Windows,10.0
73,1,null,null,html-keyboard-response,134,198684,0.0-134.0,IwAR2pJTeDT4DB71RN69Vwx4iCv9FdPbZVZH7ZII6w7T5KWhtH_EUPesQFJnM,"<div style=""font-size:60px;"">+</div>","""","""","""","""","""","""","""","""","""","2021-05-05 18:31:23",106.207.218.136,"Mozilla/5.0 (Windows NT 10.0; Win64; x64) AppleWebKit/537.36 (KHTML, like Gecko) Chrome/89.0.4389.128 Safari/537.36",WebKit,Chrome,89.0.4389.128,Windows,10.0
73,1,272.7900000754744,q,html-keyboard-response,135,198960,0.0-135.0,IwAR2pJTeDT4DB71RN69Vwx4iCv9FdPbZVZH7ZII6w7T5KWhtH_EUPesQFJnM,"
    <img id = 'img_b1' width = 18% height = 32% style = 'position:absolute;top:10%;left:25%'>
    <img id = 'img_b2' width = 18% height = 32% style = 'position:absolute;top:10%;right:25%'>
    <img id = 'img_b3' width = 18% height = 32% style = 'position:absolute;bottom:10%;left:25%'>
    <img id = 'img_b4' width = 18% height = 32% style = 'position:absolute;bottom:10%;right:25%'>
    <div id = 'cum' style = 'position:absolute;top:5%;right:5%;font-size:calc(18px + 6 * ((100vw - 320px) / 680))'></div>
  ","""","""","""","""","""","""","""","""","""","2021-05-05 18:31:23",106.207.218.136,"Mozilla/5.0 (Windows NT 10.0; Win64; x64) AppleWebKit/537.36 (KHTML, like Gecko) Chrome/89.0.4389.128 Safari/537.36",WebKit,Chrome,89.0.4389.128,Windows,10.0
73,1,null,null,html-keyboard-response,136,200465,0.0-136.0,IwAR2pJTeDT4DB71RN69Vwx4iCv9FdPbZVZH7ZII6w7T5KWhtH_EUPesQFJnM,"
    <img id = 'img_b1' width = 18% height = 32% style = 'position:absolute;top:10%;left:25%'>
    <img id = 'img_b2' width = 18% height = 32% style = 'position:absolute;top:10%;right:25%'>
