run_id,condition,rt,response,trial_type,trial_index,time_elapsed,internal_node_id,fbclid,stimulus,trend,stable,num,resp_map,success,timeout,failed_images,failed_audio,failed_video,recorded_at,ip,user_agent,device,browser,browser_version,platform,platform_version
99,1,15921.414999989793,"{""age"":""29"",""sex"":""female"",""hand"":""right""}",survey-text,0,16005,0.0-0.0,IwAR181yoHZ1hn2wXD0q3EOiJU1yeeqWircYkfWBqKLrr2zZEB6BCPkpxJYvs,"""","""","""","""","""","""","""","""","""","""","2021-05-06 16:29:14",149.167.213.210,"Mozilla/5.0 (Windows NT 10.0; Win64; x64) AppleWebKit/537.36 (KHTML, like Gecko) Chrome/90.0.4430.93 Safari/537.36",WebKit,Chrome,90.0.4430.93,Windows,10.0
99,1,50878.74500011094,enter,html-keyboard-response,1,66888,0.0-1.0,IwAR181yoHZ1hn2wXD0q3EOiJU1yeeqWircYkfWBqKLrr2zZEB6BCPkpxJYvs,"Hi! Thanks for volunteering for this study. It is part of the project component for the course, CS786A - Computational Cognitive Science, at IIT Kanpur.<br> You will now play a decision-making game lasting for 15-20 minutes. In case of any queries, please write to prathams@iitk.ac.in or call at 9760066853.<br><br>Press any key to continue!",1,0,0,"[2,3,0,1]","""","""","""","""","""","2021-05-06 16:29:14",149.167.213.210,"Mozilla/5.0 (Windows NT 10.0; Win64; x64) AppleWebKit/537.36 (KHTML, like Gecko) Chrome/90.0.4430.93 Safari/537.36",WebKit,Chrome,90.0.4430.93,Windows,10.0
99,1,49852.824999950826,enter,html-keyboard-response,2,116742,0.0-2.0,IwAR181yoHZ1hn2wXD0q3EOiJU1yeeqWircYkfWBqKLrr2zZEB6BCPkpxJYvs,"Imagine you are in a casino, and you go to a room with four slot machines. On pulling a machine, it yeilds a reward. At any point, some machines may be better than the others, but the amount they give varies. Your aim is to maximize your cumulative reward by the end of this experiment. <br>Machines are pulled by pressing 'Q', 'P', 'M' or 'Z' on the keyboard. These keys are arranged in the same way on the keyboard as the slot machines are on the screen.<br>Press any button to see an illustration of the trial screen and the keyboard mapping!","""","""","""","""","""","""","""","""","""","2021-05-06 16:29:14",149.167.213.210,"Mozilla/5.0 (Windows NT 10.0; Win64; x64) AppleWebKit/537.36 (KHTML, like Gecko) Chrome/90.0.4430.93 Safari/537.36",WebKit,Chrome,90.0.4430.93,Windows,10.0
99,1,"""","""",preload,3,120741,0.0-3.0,IwAR181yoHZ1hn2wXD0q3EOiJU1yeeqWircYkfWBqKLrr2zZEB6BCPkpxJYvs,"""","""","""","""","""",true,false,[],[],[],"2021-05-06 16:29:14",149.167.213.210,"Mozilla/5.0 (Windows NT 10.0; Win64; x64) AppleWebKit/537.36 (KHTML, like Gecko) Chrome/90.0.4430.93 Safari/537.36",WebKit,Chrome,90.0.4430.93,Windows,10.0
99,1,3973.6199998296797,enter,html-keyboard-response,4,124717,0.0-4.0,IwAR181yoHZ1hn2wXD0q3EOiJU1yeeqWircYkfWBqKLrr2zZEB6BCPkpxJYvs,"
    <img src = 'img/b1.png' width = 18% height = 32% style = 'position:absolute;top:10%;left:25%'>
    <img src = 'img/b2.png' width = 18% height = 32% style = 'position:absolute;top:10%;right:25%'>
    <img src = 'img/b3.png' width = 18% height = 32% style = 'position:absolute;bottom:10%;left:25%'>
    <img src = 'img/b4.png' width = 18% height = 32% style = 'position:absolute;bottom:10%;right:25%'>
    <div id = 'cum' style = 'position:absolute;top:5%;right:5%;font-size:calc(18px + 6 * ((100vw - 320px) / 680))'>Total</div>
    <div style = 'position:absolute;top:20%;left:30%;color:black;font-size:calc(18px + 6 * ((100vw - 320px) / 680))'>Q</div>
    <div style = 'position:absolute;top:20%;right:35%;color:black;font-size:calc(18px + 6 * ((100vw - 320px) / 680))'>P</div>
    <div style = 'position:absolute;bottom:26%;right:35%;color:black;font-size:calc(18px + 6 * ((100vw - 320px) / 680))'>M</div>
    <div style = 'position:absolute;bottom:26%;left:30%;color:black;font-size:calc(18px + 6 * ((100vw - 320px) / 680))'>Z</div>
    <div style = 'position:absolute;bottom:5%;left:30%'>Press any button to proceed to the experiment!</div>
  ","""","""","""","""","""","""","""","""","""","2021-05-06 16:29:14",149.167.213.210,"Mozilla/5.0 (Windows NT 10.0; Win64; x64) AppleWebKit/537.36 (KHTML, like Gecko) Chrome/90.0.4430.93 Safari/537.36",WebKit,Chrome,90.0.4430.93,Windows,10.0
99,1,null,null,html-keyboard-response,5,126231,0.0-5.0,IwAR181yoHZ1hn2wXD0q3EOiJU1yeeqWircYkfWBqKLrr2zZEB6BCPkpxJYvs,"<div style=""font-size:60px;"">+</div>","""","""","""","""","""","""","""","""","""","2021-05-06 16:29:14",149.167.213.210,"Mozilla/5.0 (Windows NT 10.0; Win64; x64) AppleWebKit/537.36 (KHTML, like Gecko) Chrome/90.0.4430.93 Safari/537.36",WebKit,Chrome,90.0.4430.93,Windows,10.0
99,1,null,null,html-keyboard-response,6,186242,0.0-6.0,IwAR181yoHZ1hn2wXD0q3EOiJU1yeeqWircYkfWBqKLrr2zZEB6BCPkpxJYvs,"
    <img id = 'img_b1' width = 18% height = 32% style = 'position:absolute;top:10%;left:25%'>
    <img id = 'img_b2' width = 18% height = 32% style = 'position:absolute;top:10%;right:25%'>
    <img id = 'img_b3' width = 18% height = 32% style = 'position:absolute;bottom:10%;left:25%'>
    <img id = 'img_b4' width = 18% height = 32% style = 'position:absolute;bottom:10%;right:25%'>
    <div id = 'cum' style = 'position:absolute;top:5%;right:5%;font-size:calc(18px + 6 * ((100vw - 320px) / 680))'></div>
  ","""","""","""","""","""","""","""","""","""","2021-05-06 16:29:14",149.167.213.210,"Mozilla/5.0 (Windows NT 10.0; Win64; x64) AppleWebKit/537.36 (KHTML, like Gecko) Chrome/90.0.4430.93 Safari/537.36",WebKit,Chrome,90.0.4430.93,Windows,10.0
99,1,null,null,html-keyboard-response,7,187754,0.0-7.0,IwAR181yoHZ1hn2wXD0q3EOiJU1yeeqWircYkfWBqKLrr2zZEB6BCPkpxJYvs,"
    <img id = 'img_b1' width = 18% height = 32% style = 'position:absolute;top:10%;left:25%'>
    <img id = 'img_b2' width = 18% height = 32% style = 'position:absolute;top:10%;right:25%'>
    <img id = 'img_b3' width = 18% height = 32% style = 'position:absolute;bottom:10%;left:25%'>
    <img id = 'img_b4' width = 18% height = 32% style = 'position:absolute;bottom:10%;right:25%'>
    <div id = 'band_txt'></div>
    <div id = 'cum' style = 'position:absolute;top:5%;right:5%;font-size:calc(18px + 6 * ((100vw - 320px) / 680))'></div>
  ","""","""","""","""","""","""","""","""","""","2021-05-06 16:29:14",149.167.213.210,"Mozilla/5.0 (Windows NT 10.0; Win64; x64) AppleWebKit/537.36 (KHTML, like Gecko) Chrome/90.0.4430.93 Safari/537.36",WebKit,Chrome,90.0.4430.93,Windows,10.0
99,1,null,null,html-keyboard-response,8,188506,0.0-8.0,IwAR181yoHZ1hn2wXD0q3EOiJU1yeeqWircYkfWBqKLrr2zZEB6BCPkpxJYvs,"<div style=""font-size:60px;"">+</div>","""","""","""","""","""","""","""","""","""","2021-05-06 16:29:14",149.167.213.210,"Mozilla/5.0 (Windows NT 10.0; Win64; x64) AppleWebKit/537.36 (KHTML, like Gecko) Chrome/90.0.4430.93 Safari/537.36",WebKit,Chrome,90.0.4430.93,Windows,10.0
99,1,null,null,html-keyboard-response,9,248513,0.0-9.0,IwAR181yoHZ1hn2wXD0q3EOiJU1yeeqWircYkfWBqKLrr2zZEB6BCPkpxJYvs,"
    <img id = 'img_b1' width = 18% height = 32% style = 'position:absolute;top:10%;left:25%'>
    <img id = 'img_b2' width = 18% height = 32% style = 'position:absolute;top:10%;right:25%'>
    <img id = 'img_b3' width = 18% height = 32% style = 'position:absolute;bottom:10%;left:25%'>
    <img id = 'img_b4' width = 18% height = 32% style = 'position:absolute;bottom:10%;right:25%'>
    <div id = 'cum' style = 'position:absolute;top:5%;right:5%;font-size:calc(18px + 6 * ((100vw - 320px) / 680))'></div>
  ","""","""","""","""","""","""","""","""","""","2021-05-06 16:29:14",149.167.213.210,"Mozilla/5.0 (Windows NT 10.0; Win64; x64) AppleWebKit/537.36 (KHTML, like Gecko) Chrome/90.0.4430.93 Safari/537.36",WebKit,Chrome,90.0.4430.93,Windows,10.0
99,1,null,null,html-keyboard-response,10,250019,0.0-10.0,IwAR181yoHZ1hn2wXD0q3EOiJU1yeeqWircYkfWBqKLrr2zZEB6BCPkpxJYvs,"
    <img id = 'img_b1' width = 18% height = 32% style = 'position:absolute;top:10%;left:25%'>
    <img id = 'img_b2' width = 18% height = 32% style = 'position:absolute;top:10%;right:25%'>
    <img id = 'img_b3' width = 18% height = 32% style = 'position:absolute;bottom:10%;left:25%'>
    <img id = 'img_b4' width = 18% height = 32% style = 'position:absolute;bottom:10%;right:25%'>
    <div id = 'band_txt'></div>
    <div id = 'cum' style = 'position:absolute;top:5%;right:5%;font-size:calc(18px + 6 * ((100vw - 320px) / 680))'></div>
  ","""","""","""","""","""","""","""","""","""","2021-05-06 16:29:14",149.167.213.210,"Mozilla/5.0 (Windows NT 10.0; Win64; x64) AppleWebKit/537.36 (KHTML, like Gecko) Chrome/90.0.4430.93 Safari/537.36",WebKit,Chrome,90.0.4430.93,Windows,10.0
99,1,null,null,html-keyboard-response,11,251285,0.0-11.0,IwAR181yoHZ1hn2wXD0q3EOiJU1yeeqWircYkfWBqKLrr2zZEB6BCPkpxJYvs,"<div style=""font-size:60px;"">+</div>","""","""","""","""","""","""","""","""","""","2021-05-06 16:29:14",149.167.213.210,"Mozilla/5.0 (Windows NT 10.0; Win64; x64) AppleWebKit/537.36 (KHTML, like Gecko) Chrome/90.0.4430.93 Safari/537.36",WebKit,Chrome,90.0.4430.93,Windows,10.0
99,1,null,null,html-keyboard-response,12,311296,0.0-12.0,IwAR181yoHZ1hn2wXD0q3EOiJU1yeeqWircYkfWBqKLrr2zZEB6BCPkpxJYvs,"
    <img id = 'img_b1' width = 18% height = 32% style = 'position:absolute;top:10%;left:25%'>
    <img id = 'img_b2' width = 18% height = 32% style = 'position:absolute;top:10%;right:25%'>
    <img id = 'img_b3' width = 18% height = 32% style = 'position:absolute;bottom:10%;left:25%'>
    <img id = 'img_b4' width = 18% height = 32% style = 'position:absolute;bottom:10%;right:25%'>
    <div id = 'cum' style = 'position:absolute;top:5%;right:5%;font-size:calc(18px + 6 * ((100vw - 320px) / 680))'></div>
  ","""","""","""","""","""","""","""","""","""","2021-05-06 16:29:14",149.167.213.210,"Mozilla/5.0 (Windows NT 10.0; Win64; x64) AppleWebKit/537.36 (KHTML, like Gecko) Chrome/90.0.4430.93 Safari/537.36",WebKit,Chrome,90.0.4430.93,Windows,10.0
99,1,null,null,html-keyboard-response,13,312811,0.0-13.0,IwAR181yoHZ1hn2wXD0q3EOiJU1yeeqWircYkfWBqKLrr2zZEB6BCPkpxJYvs,"
    <img id = 'img_b1' width = 18% height = 32% style = 'position:absolute;top:10%;left:25%'>
    <img id = 'img_b2' width = 18% height = 32% style = 'position:absolute;top:10%;right:25%'>
    <img id = 'img_b3' width = 18% height = 32% style = 'position:absolute;bottom:10%;left:25%'>
    <img id = 'img_b4' width = 18% height = 32% style = 'position:absolute;bottom:10%;right:25%'>
    <div id = 'band_txt'></div>
    <div id = 'cum' style = 'position:absolute;top:5%;right:5%;font-size:calc(18px + 6 * ((100vw - 320px) / 680))'></div>
  ","""","""","""","""","""","""","""","""","""","2021-05-06 16:29:14",149.167.213.210,"Mozilla/5.0 (Windows NT 10.0; Win64; x64) AppleWebKit/537.36 (KHTML, like Gecko) Chrome/90.0.4430.93 Safari/537.36",WebKit,Chrome,90.0.4430.93,Windows,10.0
99,1,null,null,html-keyboard-response,14,314065,0.0-14.0,IwAR181yoHZ1hn2wXD0q3EOiJU1yeeqWircYkfWBqKLrr2zZEB6BCPkpxJYvs,"<div style=""font-size:60px;"">+</div>","""","""","""","""","""","""","""","""","""","2021-05-06 16:29:14",149.167.213.210,"Mozilla/5.0 (Windows NT 10.0; Win64; x64) AppleWebKit/537.36 (KHTML, like Gecko) Chrome/90.0.4430.93 Safari/537.36",WebKit,Chrome,90.0.4430.93,Windows,10.0
99,1,null,null,html-keyboard-response,15,374076,0.0-15.0,IwAR181yoHZ1hn2wXD0q3EOiJU1yeeqWircYkfWBqKLrr2zZEB6BCPkpxJYvs,"
    <img id = 'img_b1' width = 18% height = 32% style = 'position:absolute;top:10%;left:25%'>
    <img id = 'img_b2' width = 18% height = 32% style = 'position:absolute;top:10%;right:25%'>
    <img id = 'img_b3' width = 18% height = 32% style = 'position:absolute;bottom:10%;left:25%'>
    <img id = 'img_b4' width = 18% height = 32% style = 'position:absolute;bottom:10%;right:25%'>
    <div id = 'cum' style = 'position:absolute;top:5%;right:5%;font-size:calc(18px + 6 * ((100vw - 320px) / 680))'></div>
  ","""","""","""","""","""","""","""","""","""","2021-05-06 16:29:14",149.167.213.210,"Mozilla/5.0 (Windows NT 10.0; Win64; x64) AppleWebKit/537.36 (KHTML, like Gecko) Chrome/90.0.4430.93 Safari/537.36",WebKit,Chrome,90.0.4430.93,Windows,10.0
99,1,null,null,html-keyboard-response,16,375591,0.0-16.0,IwAR181yoHZ1hn2wXD0q3EOiJU1yeeqWircYkfWBqKLrr2zZEB6BCPkpxJYvs,"
    <img id = 'img_b1' width = 18% height = 32% style = 'position:absolute;top:10%;left:25%'>
    <img id = 'img_b2' width = 18% height = 32% style = 'position:absolute;top:10%;right:25%'>
    <img id = 'img_b3' width = 18% height = 32% style = 'position:absolute;bottom:10%;left:25%'>
    <img id = 'img_b4' width = 18% height = 32% style = 'position:absolute;bottom:10%;right:25%'>
    <div id = 'band_txt'></div>
    <div id = 'cum' style = 'position:absolute;top:5%;right:5%;font-size:calc(18px + 6 * ((100vw - 320px) / 680))'></div>
  ","""","""","""","""","""","""","""","""","""","2021-05-06 16:29:14",149.167.213.210,"Mozilla/5.0 (Windows NT 10.0; Win64; x64) AppleWebKit/537.36 (KHTML, like Gecko) Chrome/90.0.4430.93 Safari/537.36",WebKit,Chrome,90.0.4430.93,Windows,10.0
99,1,null,null,html-keyboard-response,17,377348,0.0-17.0,IwAR181yoHZ1hn2wXD0q3EOiJU1yeeqWircYkfWBqKLrr2zZEB6BCPkpxJYvs,"<div style=""font-size:60px;"">+</div>","""","""","""","""","""","""","""","""","""","2021-05-06 16:29:14",149.167.213.210,"Mozilla/5.0 (Windows NT 10.0; Win64; x64) AppleWebKit/537.36 (KHTML, like Gecko) Chrome/90.0.4430.93 Safari/537.36",WebKit,Chrome,90.0.4430.93,Windows,10.0
99,1,null,null,html-keyboard-response,18,437362,0.0-18.0,IwAR181yoHZ1hn2wXD0q3EOiJU1yeeqWircYkfWBqKLrr2zZEB6BCPkpxJYvs,"
    <img id = 'img_b1' width = 18% height = 32% style = 'position:absolute;top:10%;left:25%'>
    <img id = 'img_b2' width = 18% height = 32% style = 'position:absolute;top:10%;right:25%'>
    <img id = 'img_b3' width = 18% height = 32% style = 'position:absolute;bottom:10%;left:25%'>
    <img id = 'img_b4' width = 18% height = 32% style = 'position:absolute;bottom:10%;right:25%'>
    <div id = 'cum' style = 'position:absolute;top:5%;right:5%;font-size:calc(18px + 6 * ((100vw - 320px) / 680))'></div>
  ","""","""","""","""","""","""","""","""","""","2021-05-06 16:29:14",149.167.213.210,"Mozilla/5.0 (Windows NT 10.0; Win64; x64) AppleWebKit/537.36 (KHTML, like Gecko) Chrome/90.0.4430.93 Safari/537.36",WebKit,Chrome,90.0.4430.93,Windows,10.0
99,1,null,null,html-keyboard-response,19,438869,0.0-19.0,IwAR181yoHZ1hn2wXD0q3EOiJU1yeeqWircYkfWBqKLrr2zZEB6BCPkpxJYvs,"
    <img id = 'img_b1' width = 18% height = 32% style = 'position:absolute;top:10%;left:25%'>
    <img id = 'img_b2' width = 18% height = 32% style = 'position:absolute;top:10%;right:25%'>
    <img id = 'img_b3' width = 18% height = 32% style = 'position:absolute;bottom:10%;left:25%'>
    <img id = 'img_b4' width = 18% height = 32% style = 'position:absolute;bottom:10%;right:25%'>
    <div id = 'band_txt'></div>
    <div id = 'cum' style = 'position:absolute;top:5%;right:5%;font-size:calc(18px + 6 * ((100vw - 320px) / 680))'></div>
  ","""","""","""","""","""","""","""","""","""","2021-05-06 16:29:14",149.167.213.210,"Mozilla/5.0 (Windows NT 10.0; Win64; x64) AppleWebKit/537.36 (KHTML, like Gecko) Chrome/90.0.4430.93 Safari/537.36",WebKit,Chrome,90.0.4430.93,Windows,10.0
99,1,null,null,html-keyboard-response,20,440128,0.0-20.0,IwAR181yoHZ1hn2wXD0q3EOiJU1yeeqWircYkfWBqKLrr2zZEB6BCPkpxJYvs,"<div style=""font-size:60px;"">+</div>","""","""","""","""","""","""","""","""","""","2021-05-06 16:29:14",149.167.213.210,"Mozilla/5.0 (Windows NT 10.0; Win64; x64) AppleWebKit/537.36 (KHTML, like Gecko) Chrome/90.0.4430.93 Safari/537.36",WebKit,Chrome,90.0.4430.93,Windows,10.0
99,1,null,null,html-keyboard-response,21,500130,0.0-21.0,IwAR181yoHZ1hn2wXD0q3EOiJU1yeeqWircYkfWBqKLrr2zZEB6BCPkpxJYvs,"
    <img id = 'img_b1' width = 18% height = 32% style = 'position:absolute;top:10%;left:25%'>
    <img id = 'img_b2' width = 18% height = 32% style = 'position:absolute;top:10%;right:25%'>
    <img id = 'img_b3' width = 18% height = 32% style = 'position:absolute;bottom:10%;left:25%'>
    <img id = 'img_b4' width = 18% height = 32% style = 'position:absolute;bottom:10%;right:25%'>
    <div id = 'cum' style = 'position:absolute;top:5%;right:5%;font-size:calc(18px + 6 * ((100vw - 320px) / 680))'></div>
  ","""","""","""","""","""","""","""","""","""","2021-05-06 16:29:14",149.167.213.210,"Mozilla/5.0 (Windows NT 10.0; Win64; x64) AppleWebKit/537.36 (KHTML, like Gecko) Chrome/90.0.4430.93 Safari/537.36",WebKit,Chrome,90.0.4430.93,Windows,10.0
99,1,null,null,html-keyboard-response,22,501639,0.0-22.0,IwAR181yoHZ1hn2wXD0q3EOiJU1yeeqWircYkfWBqKLrr2zZEB6BCPkpxJYvs,"
    <img id = 'img_b1' width = 18% height = 32% style = 'position:absolute;top:10%;left:25%'>
    <img id = 'img_b2' width = 18% height = 32% style = 'position:absolute;top:10%;right:25%'>
    <img id = 'img_b3' width = 18% height = 32% style = 'position:absolute;bottom:10%;left:25%'>
    <img id = 'img_b4' width = 18% height = 32% style = 'position:absolute;bottom:10%;right:25%'>
    <div id = 'band_txt'></div>
    <div id = 'cum' style = 'position:absolute;top:5%;right:5%;font-size:calc(18px + 6 * ((100vw - 320px) / 680))'></div>
  ","""","""","""","""","""","""","""","""","""","2021-05-06 16:29:14",149.167.213.210,"Mozilla/5.0 (Windows NT 10.0; Win64; x64) AppleWebKit/537.36 (KHTML, like Gecko) Chrome/90.0.4430.93 Safari/537.36",WebKit,Chrome,90.0.4430.93,Windows,10.0
99,1,null,null,html-keyboard-response,23,503392,0.0-23.0,IwAR181yoHZ1hn2wXD0q3EOiJU1yeeqWircYkfWBqKLrr2zZEB6BCPkpxJYvs,"<div style=""font-size:60px;"">+</div>","""","""","""","""","""","""","""","""","""","2021-05-06 16:29:14",149.167.213.210,"Mozilla/5.0 (Windows NT 10.0; Win64; x64) AppleWebKit/537.36 (KHTML, like Gecko) Chrome/90.0.4430.93 Safari/537.36",WebKit,Chrome,90.0.4430.93,Windows,10.0
99,1,null,null,html-keyboard-response,24,563394,0.0-24.0,IwAR181yoHZ1hn2wXD0q3EOiJU1yeeqWircYkfWBqKLrr2zZEB6BCPkpxJYvs,"
    <img id = 'img_b1' width = 18% height = 32% style = 'position:absolute;top:10%;left:25%'>
    <img id = 'img_b2' width = 18% height = 32% style = 'position:absolute;top:10%;right:25%'>
    <img id = 'img_b3' width = 18% height = 32% style = 'position:absolute;bottom:10%;left:25%'>
    <img id = 'img_b4' width = 18% height = 32% style = 'position:absolute;bottom:10%;right:25%'>
    <div id = 'cum' style = 'position:absolute;top:5%;right:5%;font-size:calc(18px + 6 * ((100vw - 320px) / 680))'></div>
  ","""","""","""","""","""","""","""","""","""","2021-05-06 16:29:14",149.167.213.210,"Mozilla/5.0 (Windows NT 10.0; Win64; x64) AppleWebKit/537.36 (KHTML, like Gecko) Chrome/90.0.4430.93 Safari/537.36",WebKit,Chrome,90.0.4430.93,Windows,10.0
99,1,null,null,html-keyboard-response,25,564915,0.0-25.0,IwAR181yoHZ1hn2wXD0q3EOiJU1yeeqWircYkfWBqKLrr2zZEB6BCPkpxJYvs,"
    <img id = 'img_b1' width = 18% height = 32% style = 'position:absolute;top:10%;left:25%'>
    <img id = 'img_b2' width = 18% height = 32% style = 'position:absolute;top:10%;right:25%'>
    <img id = 'img_b3' width = 18% height = 32% style = 'position:absolute;bottom:10%;left:25%'>
    <img id = 'img_b4' width = 18% height = 32% style = 'position:absolute;bottom:10%;right:25%'>
    <div id = 'band_txt'></div>
    <div id = 'cum' style = 'position:absolute;top:5%;right:5%;font-size:calc(18px + 6 * ((100vw - 320px) / 680))'></div>
  ","""","""","""","""","""","""","""","""","""","2021-05-06 16:29:14",149.167.213.210,"Mozilla/5.0 (Windows NT 10.0; Win64; x64) AppleWebKit/537.36 (KHTML, like Gecko) Chrome/90.0.4430.93 Safari/537.36",WebKit,Chrome,90.0.4430.93,Windows,10.0
99,1,null,null,html-keyboard-response,26,565677,0.0-26.0,IwAR181yoHZ1hn2wXD0q3EOiJU1yeeqWircYkfWBqKLrr2zZEB6BCPkpxJYvs,"<div style=""font-size:60px;"">+</div>","""","""","""","""","""","""","""","""","""","2021-05-06 16:29:14",149.167.213.210,"Mozilla/5.0 (Windows NT 10.0; Win64; x64) AppleWebKit/537.36 (KHTML, like Gecko) Chrome/90.0.4430.93 Safari/537.36",WebKit,Chrome,90.0.4430.93,Windows,10.0
99,1,null,null,html-keyboard-response,27,625681,0.0-27.0,IwAR181yoHZ1hn2wXD0q3EOiJU1yeeqWircYkfWBqKLrr2zZEB6BCPkpxJYvs,"
    <img id = 'img_b1' width = 18% height = 32% style = 'position:absolute;top:10%;left:25%'>
    <img id = 'img_b2' width = 18% height = 32% style = 'position:absolute;top:10%;right:25%'>
    <img id = 'img_b3' width = 18% height = 32% style = 'position:absolute;bottom:10%;left:25%'>
    <img id = 'img_b4' width = 18% height = 32% style = 'position:absolute;bottom:10%;right:25%'>
    <div id = 'cum' style = 'position:absolute;top:5%;right:5%;font-size:calc(18px + 6 * ((100vw - 320px) / 680))'></div>
  ","""","""","""","""","""","""","""","""","""","2021-05-06 16:29:14",149.167.213.210,"Mozilla/5.0 (Windows NT 10.0; Win64; x64) AppleWebKit/537.36 (KHTML, like Gecko) Chrome/90.0.4430.93 Safari/537.36",WebKit,Chrome,90.0.4430.93,Windows,10.0
99,1,null,null,html-keyboard-response,28,627188,0.0-28.0,IwAR181yoHZ1hn2wXD0q3EOiJU1yeeqWircYkfWBqKLrr2zZEB6BCPkpxJYvs,"
    <img id = 'img_b1' width = 18% height = 32% style = 'position:absolute;top:10%;left:25%'>
    <img id = 'img_b2' width = 18% height = 32% style = 'position:absolute;top:10%;right:25%'>
    <img id = 'img_b3' width = 18% height = 32% style = 'position:absolute;bottom:10%;left:25%'>
    <img id = 'img_b4' width = 18% height = 32% style = 'position:absolute;bottom:10%;right:25%'>
    <div id = 'band_txt'></div>
    <div id = 'cum' style = 'position:absolute;top:5%;right:5%;font-size:calc(18px + 6 * ((100vw - 320px) / 680))'></div>
  ","""","""","""","""","""","""","""","""","""","2021-05-06 16:29:14",149.167.213.210,"Mozilla/5.0 (Windows NT 10.0; Win64; x64) AppleWebKit/537.36 (KHTML, like Gecko) Chrome/90.0.4430.93 Safari/537.36",WebKit,Chrome,90.0.4430.93,Windows,10.0
99,1,null,null,html-keyboard-response,29,627945,0.0-29.0,IwAR181yoHZ1hn2wXD0q3EOiJU1yeeqWircYkfWBqKLrr2zZEB6BCPkpxJYvs,"<div style=""font-size:60px;"">+</div>","""","""","""","""","""","""","""","""","""","2021-05-06 16:29:14",149.167.213.210,"Mozilla/5.0 (Windows NT 10.0; Win64; x64) AppleWebKit/537.36 (KHTML, like Gecko) Chrome/90.0.4430.93 Safari/537.36",WebKit,Chrome,90.0.4430.93,Windows,10.0
99,1,null,null,html-keyboard-response,30,687962,0.0-30.0,IwAR181yoHZ1hn2wXD0q3EOiJU1yeeqWircYkfWBqKLrr2zZEB6BCPkpxJYvs,"
    <img id = 'img_b1' width = 18% height = 32% style = 'position:absolute;top:10%;left:25%'>
    <img id = 'img_b2' width = 18% height = 32% style = 'position:absolute;top:10%;right:25%'>
    <img id = 'img_b3' width = 18% height = 32% style = 'position:absolute;bottom:10%;left:25%'>
    <img id = 'img_b4' width = 18% height = 32% style = 'position:absolute;bottom:10%;right:25%'>
    <div id = 'cum' style = 'position:absolute;top:5%;right:5%;font-size:calc(18px + 6 * ((100vw - 320px) / 680))'></div>
  ","""","""","""","""","""","""","""","""","""","2021-05-06 16:29:14",149.167.213.210,"Mozilla/5.0 (Windows NT 10.0; Win64; x64) AppleWebKit/537.36 (KHTML, like Gecko) Chrome/90.0.4430.93 Safari/537.36",WebKit,Chrome,90.0.4430.93,Windows,10.0
99,1,null,null,html-keyboard-response,31,689483,0.0-31.0,IwAR181yoHZ1hn2wXD0q3EOiJU1yeeqWircYkfWBqKLrr2zZEB6BCPkpxJYvs,"
    <img id = 'img_b1' width = 18% height = 32% style = 'position:absolute;top:10%;left:25%'>
    <img id = 'img_b2' width = 18% height = 32% style = 'position:absolute;top:10%;right:25%'>
    <img id = 'img_b3' width = 18% height = 32% style = 'position:absolute;bottom:10%;left:25%'>
    <img id = 'img_b4' width = 18% height = 32% style = 'position:absolute;bottom:10%;right:25%'>
    <div id = 'band_txt'></div>
    <div id = 'cum' style = 'position:absolute;top:5%;right:5%;font-size:calc(18px + 6 * ((100vw - 320px) / 680))'></div>
  ","""","""","""","""","""","""","""","""","""","2021-05-06 16:29:14",149.167.213.210,"Mozilla/5.0 (Windows NT 10.0; Win64; x64) AppleWebKit/537.36 (KHTML, like Gecko) Chrome/90.0.4430.93 Safari/537.36",WebKit,Chrome,90.0.4430.93,Windows,10.0
99,1,null,null,html-keyboard-response,32,690239,0.0-32.0,IwAR181yoHZ1hn2wXD0q3EOiJU1yeeqWircYkfWBqKLrr2zZEB6BCPkpxJYvs,"<div style=""font-size:60px;"">+</div>","""","""","""","""","""","""","""","""","""","2021-05-06 16:29:14",149.167.213.210,"Mozilla/5.0 (Windows NT 10.0; Win64; x64) AppleWebKit/537.36 (KHTML, like Gecko) Chrome/90.0.4430.93 Safari/537.36",WebKit,Chrome,90.0.4430.93,Windows,10.0
99,1,null,null,html-keyboard-response,33,750245,0.0-33.0,IwAR181yoHZ1hn2wXD0q3EOiJU1yeeqWircYkfWBqKLrr2zZEB6BCPkpxJYvs,"
    <img id = 'img_b1' width = 18% height = 32% style = 'position:absolute;top:10%;left:25%'>
    <img id = 'img_b2' width = 18% height = 32% style = 'position:absolute;top:10%;right:25%'>
    <img id = 'img_b3' width = 18% height = 32% style = 'position:absolute;bottom:10%;left:25%'>
    <img id = 'img_b4' width = 18% height = 32% style = 'position:absolute;bottom:10%;right:25%'>
    <div id = 'cum' style = 'position:absolute;top:5%;right:5%;font-size:calc(18px + 6 * ((100vw - 320px) / 680))'></div>
  ","""","""","""","""","""","""","""","""","""","2021-05-06 16:29:14",149.167.213.210,"Mozilla/5.0 (Windows NT 10.0; Win64; x64) AppleWebKit/537.36 (KHTML, like Gecko) Chrome/90.0.4430.93 Safari/537.36",WebKit,Chrome,90.0.4430.93,Windows,10.0
99,1,null,null,html-keyboard-response,34,751760,0.0-34.0,IwAR181yoHZ1hn2wXD0q3EOiJU1yeeqWircYkfWBqKLrr2zZEB6BCPkpxJYvs,"
    <img id = 'img_b1' width = 18% height = 32% style = 'position:absolute;top:10%;left:25%'>
    <img id = 'img_b2' width = 18% height = 32% style = 'position:absolute;top:10%;right:25%'>
    <img id = 'img_b3' width = 18% height = 32% style = 'position:absolute;bottom:10%;left:25%'>
    <img id = 'img_b4' width = 18% height = 32% style = 'position:absolute;bottom:10%;right:25%'>
    <div id = 'band_txt'></div>
    <div id = 'cum' style = 'position:absolute;top:5%;right:5%;font-size:calc(18px + 6 * ((100vw - 320px) / 680))'></div>
  ","""","""","""","""","""","""","""","""","""","2021-05-06 16:29:14",149.167.213.210,"Mozilla/5.0 (Windows NT 10.0; Win64; x64) AppleWebKit/537.36 (KHTML, like Gecko) Chrome/90.0.4430.93 Safari/537.36",WebKit,Chrome,90.0.4430.93,Windows,10.0
99,1,null,null,html-keyboard-response,35,753262,0.0-35.0,IwAR181yoHZ1hn2wXD0q3EOiJU1yeeqWircYkfWBqKLrr2zZEB6BCPkpxJYvs,"<div style=""font-size:60px;"">+</div>","""","""","""","""","""","""","""","""","""","2021-05-06 16:29:14",149.167.213.210,"Mozilla/5.0 (Windows NT 10.0; Win64; x64) AppleWebKit/537.36 (KHTML, like Gecko) Chrome/90.0.4430.93 Safari/537.36",WebKit,Chrome,90.0.4430.93,Windows,10.0
99,1,null,null,html-keyboard-response,36,813277,0.0-36.0,IwAR181yoHZ1hn2wXD0q3EOiJU1yeeqWircYkfWBqKLrr2zZEB6BCPkpxJYvs,"
    <img id = 'img_b1' width = 18% height = 32% style = 'position:absolute;top:10%;left:25%'>
    <img id = 'img_b2' width = 18% height = 32% style = 'position:absolute;top:10%;right:25%'>
    <img id = 'img_b3' width = 18% height = 32% style = 'position:absolute;bottom:10%;left:25%'>
    <img id = 'img_b4' width = 18% height = 32% style = 'position:absolute;bottom:10%;right:25%'>
    <div id = 'cum' style = 'position:absolute;top:5%;right:5%;font-size:calc(18px + 6 * ((100vw - 320px) / 680))'></div>
  ","""","""","""","""","""","""","""","""","""","2021-05-06 16:29:14",149.167.213.210,"Mozilla/5.0 (Windows NT 10.0; Win64; x64) AppleWebKit/537.36 (KHTML, like Gecko) Chrome/90.0.4430.93 Safari/537.36",WebKit,Chrome,90.0.4430.93,Windows,10.0
99,1,null,null,html-keyboard-response,37,814788,0.0-37.0,IwAR181yoHZ1hn2wXD0q3EOiJU1yeeqWircYkfWBqKLrr2zZEB6BCPkpxJYvs,"
    <img id = 'img_b1' width = 18% height = 32% style = 'position:absolute;top:10%;left:25%'>
    <img id = 'img_b2' width = 18% height = 32% style = 'position:absolute;top:10%;right:25%'>
    <img id = 'img_b3' width = 18% height = 32% style = 'position:absolute;bottom:10%;left:25%'>
    <img id = 'img_b4' width = 18% height = 32% style = 'position:absolute;bottom:10%;right:25%'>
    <div id = 'band_txt'></div>
    <div id = 'cum' style = 'position:absolute;top:5%;right:5%;font-size:calc(18px + 6 * ((100vw - 320px) / 680))'></div>
  ","""","""","""","""","""","""","""","""","""","2021-05-06 16:29:14",149.167.213.210,"Mozilla/5.0 (Windows NT 10.0; Win64; x64) AppleWebKit/537.36 (KHTML, like Gecko) Chrome/90.0.4430.93 Safari/537.36",WebKit,Chrome,90.0.4430.93,Windows,10.0
99,1,null,null,html-keyboard-response,38,816044,0.0-38.0,IwAR181yoHZ1hn2wXD0q3EOiJU1yeeqWircYkfWBqKLrr2zZEB6BCPkpxJYvs,"<div style=""font-size:60px;"">+</div>","""","""","""","""","""","""","""","""","""","2021-05-06 16:29:14",149.167.213.210,"Mozilla/5.0 (Windows NT 10.0; Win64; x64) AppleWebKit/537.36 (KHTML, like Gecko) Chrome/90.0.4430.93 Safari/537.36",WebKit,Chrome,90.0.4430.93,Windows,10.0
99,1,null,null,html-keyboard-response,39,876051,0.0-39.0,IwAR181yoHZ1hn2wXD0q3EOiJU1yeeqWircYkfWBqKLrr2zZEB6BCPkpxJYvs,"
    <img id = 'img_b1' width = 18% height = 32% style = 'position:absolute;top:10%;left:25%'>
    <img id = 'img_b2' width = 18% height = 32% style = 'position:absolute;top:10%;right:25%'>
    <img id = 'img_b3' width = 18% height = 32% style = 'position:absolute;bottom:10%;left:25%'>
    <img id = 'img_b4' width = 18% height = 32% style = 'position:absolute;bottom:10%;right:25%'>
    <div id = 'cum' style = 'position:absolute;top:5%;right:5%;font-size:calc(18px + 6 * ((100vw - 320px) / 680))'></div>
  ","""","""","""","""","""","""","""","""","""","2021-05-06 16:29:14",149.167.213.210,"Mozilla/5.0 (Windows NT 10.0; Win64; x64) AppleWebKit/537.36 (KHTML, like Gecko) Chrome/90.0.4430.93 Safari/537.36",WebKit,Chrome,90.0.4430.93,Windows,10.0
99,1,null,null,html-keyboard-response,40,877561,0.0-40.0,IwAR181yoHZ1hn2wXD0q3EOiJU1yeeqWircYkfWBqKLrr2zZEB6BCPkpxJYvs,"
    <img id = 'img_b1' width = 18% height = 32% style = 'position:absolute;top:10%;left:25%'>
    <img id = 'img_b2' width = 18% height = 32% style = 'position:absolute;top:10%;right:25%'>
    <img id = 'img_b3' width = 18% height = 32% style = 'position:absolute;bottom:10%;left:25%'>
    <img id = 'img_b4' width = 18% height = 32% style = 'position:absolute;bottom:10%;right:25%'>
    <div id = 'band_txt'></div>
    <div id = 'cum' style = 'position:absolute;top:5%;right:5%;font-size:calc(18px + 6 * ((100vw - 320px) / 680))'></div>
  ","""","""","""","""","""","""","""","""","""","2021-05-06 16:29:14",149.167.213.210,"Mozilla/5.0 (Windows NT 10.0; Win64; x64) AppleWebKit/537.36 (KHTML, like Gecko) Chrome/90.0.4430.93 Safari/537.36",WebKit,Chrome,90.0.4430.93,Windows,10.0
99,1,null,null,html-keyboard-response,41,878822,0.0-41.0,IwAR181yoHZ1hn2wXD0q3EOiJU1yeeqWircYkfWBqKLrr2zZEB6BCPkpxJYvs,"<div style=""font-size:60px;"">+</div>","""","""","""","""","""","""","""","""","""","2021-05-06 16:29:14",149.167.213.210,"Mozilla/5.0 (Windows NT 10.0; Win64; x64) AppleWebKit/537.36 (KHTML, like Gecko) Chrome/90.0.4430.93 Safari/537.36",WebKit,Chrome,90.0.4430.93,Windows,10.0
99,1,null,null,html-keyboard-response,42,938838,0.0-42.0,IwAR181yoHZ1hn2wXD0q3EOiJU1yeeqWircYkfWBqKLrr2zZEB6BCPkpxJYvs,"
    <img id = 'img_b1' width = 18% height = 32% style = 'position:absolute;top:10%;left:25%'>
    <img id = 'img_b2' width = 18% height = 32% style = 'position:absolute;top:10%;right:25%'>
    <img id = 'img_b3' width = 18% height = 32% style = 'position:absolute;bottom:10%;left:25%'>
    <img id = 'img_b4' width = 18% height = 32% style = 'position:absolute;bottom:10%;right:25%'>
    <div id = 'cum' style = 'position:absolute;top:5%;right:5%;font-size:calc(18px + 6 * ((100vw - 320px) / 680))'></div>
  ","""","""","""","""","""","""","""","""","""","2021-05-06 16:29:14",149.167.213.210,"Mozilla/5.0 (Windows NT 10.0; Win64; x64) AppleWebKit/537.36 (KHTML, like Gecko) Chrome/90.0.4430.93 Safari/537.36",WebKit,Chrome,90.0.4430.93,Windows,10.0
99,1,null,null,html-keyboard-response,43,940348,0.0-43.0,IwAR181yoHZ1hn2wXD0q3EOiJU1yeeqWircYkfWBqKLrr2zZEB6BCPkpxJYvs,"
    <img id = 'img_b1' width = 18% height = 32% style = 'position:absolute;top:10%;left:25%'>
    <img id = 'img_b2' width = 18% height = 32% style = 'position:absolute;top:10%;right:25%'>
    <img id = 'img_b3' width = 18% height = 32% style = 'position:absolute;bottom:10%;left:25%'>
    <img id = 'img_b4' width = 18% height = 32% style = 'position:absolute;bottom:10%;right:25%'>
    <div id = 'band_txt'></div>
    <div id = 'cum' style = 'position:absolute;top:5%;right:5%;font-size:calc(18px + 6 * ((100vw - 320px) / 680))'></div>
  ","""","""","""","""","""","""","""","""","""","2021-05-06 16:29:14",149.167.213.210,"Mozilla/5.0 (Windows NT 10.0; Win64; x64) AppleWebKit/537.36 (KHTML, like Gecko) Chrome/90.0.4430.93 Safari/537.36",WebKit,Chrome,90.0.4430.93,Windows,10.0
99,1,null,null,html-keyboard-response,44,942103,0.0-44.0,IwAR181yoHZ1hn2wXD0q3EOiJU1yeeqWircYkfWBqKLrr2zZEB6BCPkpxJYvs,"<div style=""font-size:60px;"">+</div>","""","""","""","""","""","""","""","""","""","2021-05-06 16:29:14",149.167.213.210,"Mozilla/5.0 (Windows NT 10.0; Win64; x64) AppleWebKit/537.36 (KHTML, like Gecko) Chrome/90.0.4430.93 Safari/537.36",WebKit,Chrome,90.0.4430.93,Windows,10.0
99,1,null,null,html-keyboard-response,45,1002107,0.0-45.0,IwAR181yoHZ1hn2wXD0q3EOiJU1yeeqWircYkfWBqKLrr2zZEB6BCPkpxJYvs,"
    <img id = 'img_b1' width = 18% height = 32% style = 'position:absolute;top:10%;left:25%'>
    <img id = 'img_b2' width = 18% height = 32% style = 'position:absolute;top:10%;right:25%'>
    <img id = 'img_b3' width = 18% height = 32% style = 'position:absolute;bottom:10%;left:25%'>
    <img id = 'img_b4' width = 18% height = 32% style = 'position:absolute;bottom:10%;right:25%'>
    <div id = 'cum' style = 'position:absolute;top:5%;right:5%;font-size:calc(18px + 6 * ((100vw - 320px) / 680))'></div>
  ","""","""","""","""","""","""","""","""","""","2021-05-06 16:29:14",149.167.213.210,"Mozilla/5.0 (Windows NT 10.0; Win64; x64) AppleWebKit/537.36 (KHTML, like Gecko) Chrome/90.0.4430.93 Safari/537.36",WebKit,Chrome,90.0.4430.93,Windows,10.0
99,1,null,null,html-keyboard-response,46,1003613,0.0-46.0,IwAR181yoHZ1hn2wXD0q3EOiJU1yeeqWircYkfWBqKLrr2zZEB6BCPkpxJYvs,"
    <img id = 'img_b1' width = 18% height = 32% style = 'position:absolute;top:10%;left:25%'>
    <img id = 'img_b2' width = 18% height = 32% style = 'position:absolute;top:10%;right:25%'>
    <img id = 'img_b3' width = 18% height = 32% style = 'position:absolute;bottom:10%;left:25%'>
    <img id = 'img_b4' width = 18% height = 32% style = 'position:absolute;bottom:10%;right:25%'>
    <div id = 'band_txt'></div>
    <div id = 'cum' style = 'position:absolute;top:5%;right:5%;font-size:calc(18px + 6 * ((100vw - 320px) / 680))'></div>
  ","""","""","""","""","""","""","""","""","""","2021-05-06 16:29:14",149.167.213.210,"Mozilla/5.0 (Windows NT 10.0; Win64; x64) AppleWebKit/537.36 (KHTML, like Gecko) Chrome/90.0.4430.93 Safari/537.36",WebKit,Chrome,90.0.4430.93,Windows,10.0
99,1,null,null,html-keyboard-response,47,1004624,0.0-47.0,IwAR181yoHZ1hn2wXD0q3EOiJU1yeeqWircYkfWBqKLrr2zZEB6BCPkpxJYvs,"<div style=""font-size:60px;"">+</div>","""","""","""","""","""","""","""","""","""","2021-05-06 16:29:14",149.167.213.210,"Mozilla/5.0 (Windows NT 10.0; Win64; x64) AppleWebKit/537.36 (KHTML, like Gecko) Chrome/90.0.4430.93 Safari/537.36",WebKit,Chrome,90.0.4430.93,Windows,10.0
99,1,null,null,html-keyboard-response,48,1064627,0.0-48.0,IwAR181yoHZ1hn2wXD0q3EOiJU1yeeqWircYkfWBqKLrr2zZEB6BCPkpxJYvs,"
    <img id = 'img_b1' width = 18% height = 32% style = 'position:absolute;top:10%;left:25%'>
    <img id = 'img_b2' width = 18% height = 32% style = 'position:absolute;top:10%;right:25%'>
    <img id = 'img_b3' width = 18% height = 32% style = 'position:absolute;bottom:10%;left:25%'>
    <img id = 'img_b4' width = 18% height = 32% style = 'position:absolute;bottom:10%;right:25%'>
    <div id = 'cum' style = 'position:absolute;top:5%;right:5%;font-size:calc(18px + 6 * ((100vw - 320px) / 680))'></div>
  ","""","""","""","""","""","""","""","""","""","2021-05-06 16:29:14",149.167.213.210,"Mozilla/5.0 (Windows NT 10.0; Win64; x64) AppleWebKit/537.36 (KHTML, like Gecko) Chrome/90.0.4430.93 Safari/537.36",WebKit,Chrome,90.0.4430.93,Windows,10.0
99,1,null,null,html-keyboard-response,49,1066141,0.0-49.0,IwAR181yoHZ1hn2wXD0q3EOiJU1yeeqWircYkfWBqKLrr2zZEB6BCPkpxJYvs,"
    <img id = 'img_b1' width = 18% height = 32% style = 'position:absolute;top:10%;left:25%'>
    <img id = 'img_b2' width = 18% height = 32% style = 'position:absolute;top:10%;right:25%'>
    <img id = 'img_b3' width = 18% height = 32% style = 'position:absolute;bottom:10%;left:25%'>
    <img id = 'img_b4' width = 18% height = 32% style = 'position:absolute;bottom:10%;right:25%'>
    <div id = 'band_txt'></div>
    <div id = 'cum' style = 'position:absolute;top:5%;right:5%;font-size:calc(18px + 6 * ((100vw - 320px) / 680))'></div>
  ","""","""","""","""","""","""","""","""","""","2021-05-06 16:29:14",149.167.213.210,"Mozilla/5.0 (Windows NT 10.0; Win64; x64) AppleWebKit/537.36 (KHTML, like Gecko) Chrome/90.0.4430.93 Safari/537.36",WebKit,Chrome,90.0.4430.93,Windows,10.0
99,1,null,null,html-keyboard-response,50,1067643,0.0-50.0,IwAR181yoHZ1hn2wXD0q3EOiJU1yeeqWircYkfWBqKLrr2zZEB6BCPkpxJYvs,"<div style=""font-size:60px;"">+</div>","""","""","""","""","""","""","""","""","""","2021-05-06 16:29:14",149.167.213.210,"Mozilla/5.0 (Windows NT 10.0; Win64; x64) AppleWebKit/537.36 (KHTML, like Gecko) Chrome/90.0.4430.93 Safari/537.36",WebKit,Chrome,90.0.4430.93,Windows,10.0
99,1,null,null,html-keyboard-response,51,1127656,0.0-51.0,IwAR181yoHZ1hn2wXD0q3EOiJU1yeeqWircYkfWBqKLrr2zZEB6BCPkpxJYvs,"
    <img id = 'img_b1' width = 18% height = 32% style = 'position:absolute;top:10%;left:25%'>
    <img id = 'img_b2' width = 18% height = 32% style = 'position:absolute;top:10%;right:25%'>
    <img id = 'img_b3' width = 18% height = 32% style = 'position:absolute;bottom:10%;left:25%'>
    <img id = 'img_b4' width = 18% height = 32% style = 'position:absolute;bottom:10%;right:25%'>
    <div id = 'cum' style = 'position:absolute;top:5%;right:5%;font-size:calc(18px + 6 * ((100vw - 320px) / 680))'></div>
  ","""","""","""","""","""","""","""","""","""","2021-05-06 16:29:14",149.167.213.210,"Mozilla/5.0 (Windows NT 10.0; Win64; x64) AppleWebKit/537.36 (KHTML, like Gecko) Chrome/90.0.4430.93 Safari/537.36",WebKit,Chrome,90.0.4430.93,Windows,10.0
99,1,null,null,html-keyboard-response,52,1129177,0.0-52.0,IwAR181yoHZ1hn2wXD0q3EOiJU1yeeqWircYkfWBqKLrr2zZEB6BCPkpxJYvs,"
    <img id = 'img_b1' width = 18% height = 32% style = 'position:absolute;top:10%;left:25%'>
    <img id = 'img_b2' width = 18% height = 32% style = 'position:absolute;top:10%;right:25%'>
    <img id = 'img_b3' width = 18% height = 32% style = 'position:absolute;bottom:10%;left:25%'>
    <img id = 'img_b4' width = 18% height = 32% style = 'position:absolute;bottom:10%;right:25%'>
    <div id = 'band_txt'></div>
    <div id = 'cum' style = 'position:absolute;top:5%;right:5%;font-size:calc(18px + 6 * ((100vw - 320px) / 680))'></div>
  ","""","""","""","""","""","""","""","""","""","2021-05-06 16:29:14",149.167.213.210,"Mozilla/5.0 (Windows NT 10.0; Win64; x64) AppleWebKit/537.36 (KHTML, like Gecko) Chrome/90.0.4430.93 Safari/537.36",WebKit,Chrome,90.0.4430.93,Windows,10.0
99,1,null,null,html-keyboard-response,53,1130688,0.0-53.0,IwAR181yoHZ1hn2wXD0q3EOiJU1yeeqWircYkfWBqKLrr2zZEB6BCPkpxJYvs,"<div style=""font-size:60px;"">+</div>","""","""","""","""","""","""","""","""","""","2021-05-06 16:29:14",149.167.213.210,"Mozilla/5.0 (Windows NT 10.0; Win64; x64) AppleWebKit/537.36 (KHTML, like Gecko) Chrome/90.0.4430.93 Safari/537.36",WebKit,Chrome,90.0.4430.93,Windows,10.0
99,1,null,null,html-keyboard-response,54,1190704,0.0-54.0,IwAR181yoHZ1hn2wXD0q3EOiJU1yeeqWircYkfWBqKLrr2zZEB6BCPkpxJYvs,"
    <img id = 'img_b1' width = 18% height = 32% style = 'position:absolute;top:10%;left:25%'>
    <img id = 'img_b2' width = 18% height = 32% style = 'position:absolute;top:10%;right:25%'>
    <img id = 'img_b3' width = 18% height = 32% style = 'position:absolute;bottom:10%;left:25%'>
    <img id = 'img_b4' width = 18% height = 32% style = 'position:absolute;bottom:10%;right:25%'>
    <div id = 'cum' style = 'position:absolute;top:5%;right:5%;font-size:calc(18px + 6 * ((100vw - 320px) / 680))'></div>
  ","""","""","""","""","""","""","""","""","""","2021-05-06 16:29:14",149.167.213.210,"Mozilla/5.0 (Windows NT 10.0; Win64; x64) AppleWebKit/537.36 (KHTML, like Gecko) Chrome/90.0.4430.93 Safari/537.36",WebKit,Chrome,90.0.4430.93,Windows,10.0
99,1,null,null,html-keyboard-response,55,1192227,0.0-55.0,IwAR181yoHZ1hn2wXD0q3EOiJU1yeeqWircYkfWBqKLrr2zZEB6BCPkpxJYvs,"
    <img id = 'img_b1' width = 18% height = 32% style = 'position:absolute;top:10%;left:25%'>
    <img id = 'img_b2' width = 18% height = 32% style = 'position:absolute;top:10%;right:25%'>
    <img id = 'img_b3' width = 18% height = 32% style = 'position:absolute;bottom:10%;left:25%'>
    <img id = 'img_b4' width = 18% height = 32% style = 'position:absolute;bottom:10%;right:25%'>
    <div id = 'band_txt'></div>
    <div id = 'cum' style = 'position:absolute;top:5%;right:5%;font-size:calc(18px + 6 * ((100vw - 320px) / 680))'></div>
  ","""","""","""","""","""","""","""","""","""","2021-05-06 16:29:14",149.167.213.210,"Mozilla/5.0 (Windows NT 10.0; Win64; x64) AppleWebKit/537.36 (KHTML, like Gecko) Chrome/90.0.4430.93 Safari/537.36",WebKit,Chrome,90.0.4430.93,Windows,10.0
99,1,null,null,html-keyboard-response,56,1192995,0.0-56.0,IwAR181yoHZ1hn2wXD0q3EOiJU1yeeqWircYkfWBqKLrr2zZEB6BCPkpxJYvs,"<div style=""font-size:60px;"">+</div>","""","""","""","""","""","""","""","""","""","2021-05-06 16:29:14",149.167.213.210,"Mozilla/5.0 (Windows NT 10.0; Win64; x64) AppleWebKit/537.36 (KHTML, like Gecko) Chrome/90.0.4430.93 Safari/537.36",WebKit,Chrome,90.0.4430.93,Windows,10.0
99,1,null,null,html-keyboard-response,57,1253008,0.0-57.0,IwAR181yoHZ1hn2wXD0q3EOiJU1yeeqWircYkfWBqKLrr2zZEB6BCPkpxJYvs,"
    <img id = 'img_b1' width = 18% height = 32% style = 'position:absolute;top:10%;left:25%'>
    <img id = 'img_b2' width = 18% height = 32% style = 'position:absolute;top:10%;right:25%'>
    <img id = 'img_b3' width = 18% height = 32% style = 'position:absolute;bottom:10%;left:25%'>
    <img id = 'img_b4' width = 18% height = 32% style = 'position:absolute;bottom:10%;right:25%'>
    <div id = 'cum' style = 'position:absolute;top:5%;right:5%;font-size:calc(18px + 6 * ((100vw - 320px) / 680))'></div>
  ","""","""","""","""","""","""","""","""","""","2021-05-06 16:29:14",149.167.213.210,"Mozilla/5.0 (Windows NT 10.0; Win64; x64) AppleWebKit/537.36 (KHTML, like Gecko) Chrome/90.0.4430.93 Safari/537.36",WebKit,Chrome,90.0.4430.93,Windows,10.0
99,1,null,null,html-keyboard-response,58,1254515,0.0-58.0,IwAR181yoHZ1hn2wXD0q3EOiJU1yeeqWircYkfWBqKLrr2zZEB6BCPkpxJYvs,"
    <img id = 'img_b1' width = 18% height = 32% style = 'position:absolute;top:10%;left:25%'>
    <img id = 'img_b2' width = 18% height = 32% style = 'position:absolute;top:10%;right:25%'>
    <img id = 'img_b3' width = 18% height = 32% style = 'position:absolute;bottom:10%;left:25%'>
    <img id = 'img_b4' width = 18% height = 32% style = 'position:absolute;bottom:10%;right:25%'>
    <div id = 'band_txt'></div>
    <div id = 'cum' style = 'position:absolute;top:5%;right:5%;font-size:calc(18px + 6 * ((100vw - 320px) / 680))'></div>
  ","""","""","""","""","""","""","""","""","""","2021-05-06 16:29:14",149.167.213.210,"Mozilla/5.0 (Windows NT 10.0; Win64; x64) AppleWebKit/537.36 (KHTML, like Gecko) Chrome/90.0.4430.93 Safari/537.36",WebKit,Chrome,90.0.4430.93,Windows,10.0
99,1,null,null,html-keyboard-response,59,1255770,0.0-59.0,IwAR181yoHZ1hn2wXD0q3EOiJU1yeeqWircYkfWBqKLrr2zZEB6BCPkpxJYvs,"<div style=""font-size:60px;"">+</div>","""","""","""","""","""","""","""","""","""","2021-05-06 16:29:14",149.167.213.210,"Mozilla/5.0 (Windows NT 10.0; Win64; x64) AppleWebKit/537.36 (KHTML, like Gecko) Chrome/90.0.4430.93 Safari/537.36",WebKit,Chrome,90.0.4430.93,Windows,10.0
99,1,null,null,html-keyboard-response,60,1315783,0.0-60.0,IwAR181yoHZ1hn2wXD0q3EOiJU1yeeqWircYkfWBqKLrr2zZEB6BCPkpxJYvs,"
    <img id = 'img_b1' width = 18% height = 32% style = 'position:absolute;top:10%;left:25%'>
    <img id = 'img_b2' width = 18% height = 32% style = 'position:absolute;top:10%;right:25%'>
    <img id = 'img_b3' width = 18% height = 32% style = 'position:absolute;bottom:10%;left:25%'>
    <img id = 'img_b4' width = 18% height = 32% style = 'position:absolute;bottom:10%;right:25%'>
    <div id = 'cum' style = 'position:absolute;top:5%;right:5%;font-size:calc(18px + 6 * ((100vw - 320px) / 680))'></div>
  ","""","""","""","""","""","""","""","""","""","2021-05-06 16:29:14",149.167.213.210,"Mozilla/5.0 (Windows NT 10.0; Win64; x64) AppleWebKit/537.36 (KHTML, like Gecko) Chrome/90.0.4430.93 Safari/537.36",WebKit,Chrome,90.0.4430.93,Windows,10.0
99,1,null,null,html-keyboard-response,61,1317294,0.0-61.0,IwAR181yoHZ1hn2wXD0q3EOiJU1yeeqWircYkfWBqKLrr2zZEB6BCPkpxJYvs,"
    <img id = 'img_b1' width = 18% height = 32% style = 'position:absolute;top:10%;left:25%'>
    <img id = 'img_b2' width = 18% height = 32% style = 'position:absolute;top:10%;right:25%'>
    <img id = 'img_b3' width = 18% height = 32% style = 'position:absolute;bottom:10%;left:25%'>
    <img id = 'img_b4' width = 18% height = 32% style = 'position:absolute;bottom:10%;right:25%'>
    <div id = 'band_txt'></div>
    <div id = 'cum' style = 'position:absolute;top:5%;right:5%;font-size:calc(18px + 6 * ((100vw - 320px) / 680))'></div>
  ","""","""","""","""","""","""","""","""","""","2021-05-06 16:29:14",149.167.213.210,"Mozilla/5.0 (Windows NT 10.0; Win64; x64) AppleWebKit/537.36 (KHTML, like Gecko) Chrome/90.0.4430.93 Safari/537.36",WebKit,Chrome,90.0.4430.93,Windows,10.0
99,1,null,null,html-keyboard-response,62,1318555,0.0-62.0,IwAR181yoHZ1hn2wXD0q3EOiJU1yeeqWircYkfWBqKLrr2zZEB6BCPkpxJYvs,"<div style=""font-size:60px;"">+</div>","""","""","""","""","""","""","""","""","""","2021-05-06 16:29:14",149.167.213.210,"Mozilla/5.0 (Windows NT 10.0; Win64; x64) AppleWebKit/537.36 (KHTML, like Gecko) Chrome/90.0.4430.93 Safari/537.36",WebKit,Chrome,90.0.4430.93,Windows,10.0
99,1,null,null,html-keyboard-response,63,1379074,0.0-63.0,IwAR181yoHZ1hn2wXD0q3EOiJU1yeeqWircYkfWBqKLrr2zZEB6BCPkpxJYvs,"
    <img id = 'img_b1' width = 18% height = 32% style = 'position:absolute;top:10%;left:25%'>
    <img id = 'img_b2' width = 18% height = 32% style = 'position:absolute;top:10%;right:25%'>
    <img id = 'img_b3' width = 18% height = 32% style = 'position:absolute;bottom:10%;left:25%'>
    <img id = 'img_b4' width = 18% height = 32% style = 'position:absolute;bottom:10%;right:25%'>
    <div id = 'cum' style = 'position:absolute;top:5%;right:5%;font-size:calc(18px + 6 * ((100vw - 320px) / 680))'></div>
  ","""","""","""","""","""","""","""","""","""","2021-05-06 16:29:14",149.167.213.210,"Mozilla/5.0 (Windows NT 10.0; Win64; x64) AppleWebKit/537.36 (KHTML, like Gecko) Chrome/90.0.4430.93 Safari/537.36",WebKit,Chrome,90.0.4430.93,Windows,10.0
99,1,null,null,html-keyboard-response,64,1381074,0.0-64.0,IwAR181yoHZ1hn2wXD0q3EOiJU1yeeqWircYkfWBqKLrr2zZEB6BCPkpxJYvs,"
    <img id = 'img_b1' width = 18% height = 32% style = 'position:absolute;top:10%;left:25%'>
    <img id = 'img_b2' width = 18% height = 32% style = 'position:absolute;top:10%;right:25%'>
    <img id = 'img_b3' width = 18% height = 32% style = 'position:absolute;bottom:10%;left:25%'>
    <img id = 'img_b4' width = 18% height = 32% style = 'position:absolute;bottom:10%;right:25%'>
    <div id = 'band_txt'></div>
    <div id = 'cum' style = 'position:absolute;top:5%;right:5%;font-size:calc(18px + 6 * ((100vw - 320px) / 680))'></div>
  ","""","""","""","""","""","""","""","""","""","2021-05-06 16:29:14",149.167.213.210,"Mozilla/5.0 (Windows NT 10.0; Win64; x64) AppleWebKit/537.36 (KHTML, like Gecko) Chrome/90.0.4430.93 Safari/537.36",WebKit,Chrome,90.0.4430.93,Windows,10.0
99,1,null,null,html-keyboard-response,65,1382084,0.0-65.0,IwAR181yoHZ1hn2wXD0q3EOiJU1yeeqWircYkfWBqKLrr2zZEB6BCPkpxJYvs,"<div style=""font-size:60px;"">+</div>","""","""","""","""","""","""","""","""","""","2021-05-06 16:29:14",149.167.213.210,"Mozilla/5.0 (Windows NT 10.0; Win64; x64) AppleWebKit/537.36 (KHTML, like Gecko) Chrome/90.0.4430.93 Safari/537.36",WebKit,Chrome,90.0.4430.93,Windows,10.0
99,1,6292.1750000678,q,html-keyboard-response,66,1388378,0.0-66.0,IwAR181yoHZ1hn2wXD0q3EOiJU1yeeqWircYkfWBqKLrr2zZEB6BCPkpxJYvs,"
    <img id = 'img_b1' width = 18% height = 32% style = 'position:absolute;top:10%;left:25%'>
    <img id = 'img_b2' width = 18% height = 32% style = 'position:absolute;top:10%;right:25%'>
    <img id = 'img_b3' width = 18% height = 32% style = 'position:absolute;bottom:10%;left:25%'>
    <img id = 'img_b4' width = 18% height = 32% style = 'position:absolute;bottom:10%;right:25%'>
    <div id = 'cum' style = 'position:absolute;top:5%;right:5%;font-size:calc(18px + 6 * ((100vw - 320px) / 680))'></div>
  ","""","""","""","""","""","""","""","""","""","2021-05-06 16:29:14",149.167.213.210,"Mozilla/5.0 (Windows NT 10.0; Win64; x64) AppleWebKit/537.36 (KHTML, like Gecko) Chrome/90.0.4430.93 Safari/537.36",WebKit,Chrome,90.0.4430.93,Windows,10.0
99,1,null,null,html-keyboard-response,67,1389885,0.0-67.0,IwAR181yoHZ1hn2wXD0q3EOiJU1yeeqWircYkfWBqKLrr2zZEB6BCPkpxJYvs,"
    <img id = 'img_b1' width = 18% height = 32% style = 'position:absolute;top:10%;left:25%'>
    <img id = 'img_b2' width = 18% height = 32% style = 'position:absolute;top:10%;right:25%'>
    <img id = 'img_b3' width = 18% height = 32% style = 'position:absolute;bottom:10%;left:25%'>
    <img id = 'img_b4' width = 18% height = 32% style = 'position:absolute;bottom:10%;right:25%'>
    <div id = 'band_txt'></div>
    <div id = 'cum' style = 'position:absolute;top:5%;right:5%;font-size:calc(18px + 6 * ((100vw - 320px) / 680))'></div>
  ","""","""","""","""","""","""","""","""","""","2021-05-06 16:29:14",149.167.213.210,"Mozilla/5.0 (Windows NT 10.0; Win64; x64) AppleWebKit/537.36 (KHTML, like Gecko) Chrome/90.0.4430.93 Safari/537.36",WebKit,Chrome,90.0.4430.93,Windows,10.0
99,1,null,null,html-keyboard-response,68,1391397,0.0-68.0,IwAR181yoHZ1hn2wXD0q3EOiJU1yeeqWircYkfWBqKLrr2zZEB6BCPkpxJYvs,"<div style=""font-size:60px;"">+</div>","""","""","""","""","""","""","""","""","""","2021-05-06 16:29:14",149.167.213.210,"Mozilla/5.0 (Windows NT 10.0; Win64; x64) AppleWebKit/537.36 (KHTML, like Gecko) Chrome/90.0.4430.93 Safari/537.36",WebKit,Chrome,90.0.4430.93,Windows,10.0
99,1,1388.4000000543892,p,html-keyboard-response,69,1392787,0.0-69.0,IwAR181yoHZ1hn2wXD0q3EOiJU1yeeqWircYkfWBqKLrr2zZEB6BCPkpxJYvs,"
    <img id = 'img_b1' width = 18% height = 32% style = 'position:absolute;top:10%;left:25%'>
    <img id = 'img_b2' width = 18% height = 32% style = 'position:absolute;top:10%;right:25%'>
    <img id = 'img_b3' width = 18% height = 32% style = 'position:absolute;bottom:10%;left:25%'>
    <img id = 'img_b4' width = 18% height = 32% style = 'position:absolute;bottom:10%;right:25%'>
    <div id = 'cum' style = 'position:absolute;top:5%;right:5%;font-size:calc(18px + 6 * ((100vw - 320px) / 680))'></div>
  ","""","""","""","""","""","""","""","""","""","2021-05-06 16:29:14",149.167.213.210,"Mozilla/5.0 (Windows NT 10.0; Win64; x64) AppleWebKit/537.36 (KHTML, like Gecko) Chrome/90.0.4430.93 Safari/537.36",WebKit,Chrome,90.0.4430.93,Windows,10.0
99,1,null,null,html-keyboard-response,70,1394295,0.0-70.0,IwAR181yoHZ1hn2wXD0q3EOiJU1yeeqWircYkfWBqKLrr2zZEB6BCPkpxJYvs,"
    <img id = 'img_b1' width = 18% height = 32% style = 'position:absolute;top:10%;left:25%'>
    <img id = 'img_b2' width = 18% height = 32% style = 'position:absolute;top:10%;right:25%'>
    <img id = 'img_b3' width = 18% height = 32% style = 'position:absolute;bottom:10%;left:25%'>
    <img id = 'img_b4' width = 18% height = 32% style = 'position:absolute;bottom:10%;right:25%'>
    <div id = 'band_txt'></div>
    <div id = 'cum' style = 'position:absolute;top:5%;right:5%;font-size:calc(18px + 6 * ((100vw - 320px) / 680))'></div>
  ","""","""","""","""","""","""","""","""","""","2021-05-06 16:29:14",149.167.213.210,"Mozilla/5.0 (Windows NT 10.0; Win64; x64) AppleWebKit/537.36 (KHTML, like Gecko) Chrome/90.0.4430.93 Safari/537.36",WebKit,Chrome,90.0.4430.93,Windows,10.0
99,1,null,null,html-keyboard-response,71,1395310,0.0-71.0,IwAR181yoHZ1hn2wXD0q3EOiJU1yeeqWircYkfWBqKLrr2zZEB6BCPkpxJYvs,"<div style=""font-size:60px;"">+</div>","""","""","""","""","""","""","""","""","""","2021-05-06 16:29:14",149.167.213.210,"Mozilla/5.0 (Windows NT 10.0; Win64; x64) AppleWebKit/537.36 (KHTML, like Gecko) Chrome/90.0.4430.93 Safari/537.36",WebKit,Chrome,90.0.4430.93,Windows,10.0
99,1,729.1449999902397,m,html-keyboard-response,72,1396040,0.0-72.0,IwAR181yoHZ1hn2wXD0q3EOiJU1yeeqWircYkfWBqKLrr2zZEB6BCPkpxJYvs,"
    <img id = 'img_b1' width = 18% height = 32% style = 'position:absolute;top:10%;left:25%'>
    <img id = 'img_b2' width = 18% height = 32% style = 'position:absolute;top:10%;right:25%'>
    <img id = 'img_b3' width = 18% height = 32% style = 'position:absolute;bottom:10%;left:25%'>
    <img id = 'img_b4' width = 18% height = 32% style = 'position:absolute;bottom:10%;right:25%'>
    <div id = 'cum' style = 'position:absolute;top:5%;right:5%;font-size:calc(18px + 6 * ((100vw - 320px) / 680))'></div>
  ","""","""","""","""","""","""","""","""","""","2021-05-06 16:29:14",149.167.213.210,"Mozilla/5.0 (Windows NT 10.0; Win64; x64) AppleWebKit/537.36 (KHTML, like Gecko) Chrome/90.0.4430.93 Safari/537.36",WebKit,Chrome,90.0.4430.93,Windows,10.0
99,1,null,null,html-keyboard-response,73,1397551,0.0-73.0,IwAR181yoHZ1hn2wXD0q3EOiJU1yeeqWircYkfWBqKLrr2zZEB6BCPkpxJYvs,"
    <img id = 'img_b1' width = 18% height = 32% style = 'position:absolute;top:10%;left:25%'>
    <img id = 'img_b2' width = 18% height = 32% style = 'position:absolute;top:10%;right:25%'>
    <img id = 'img_b3' width = 18% height = 32% style = 'position:absolute;bottom:10%;left:25%'>
    <img id = 'img_b4' width = 18% height = 32% style = 'position:absolute;bottom:10%;right:25%'>
    <div id = 'band_txt'></div>
    <div id = 'cum' style = 'position:absolute;top:5%;right:5%;font-size:calc(18px + 6 * ((100vw - 320px) / 680))'></div>
  ","""","""","""","""","""","""","""","""","""","2021-05-06 16:29:14",149.167.213.210,"Mozilla/5.0 (Windows NT 10.0; Win64; x64) AppleWebKit/537.36 (KHTML, like Gecko) Chrome/90.0.4430.93 Safari/537.36",WebKit,Chrome,90.0.4430.93,Windows,10.0
99,1,null,null,html-keyboard-response,74,1398309,0.0-74.0,IwAR181yoHZ1hn2wXD0q3EOiJU1yeeqWircYkfWBqKLrr2zZEB6BCPkpxJYvs,"<div style=""font-size:60px;"">+</div>","""","""","""","""","""","""","""","""","""","2021-05-06 16:29:14",149.167.213.210,"Mozilla/5.0 (Windows NT 10.0; Win64; x64) AppleWebKit/537.36 (KHTML, like Gecko) Chrome/90.0.4430.93 Safari/537.36",WebKit,Chrome,90.0.4430.93,Windows,10.0
99,1,331.30000019446015,z,html-keyboard-response,75,1398642,0.0-75.0,IwAR181yoHZ1hn2wXD0q3EOiJU1yeeqWircYkfWBqKLrr2zZEB6BCPkpxJYvs,"
    <img id = 'img_b1' width = 18% height = 32% style = 'position:absolute;top:10%;left:25%'>
    <img id = 'img_b2' width = 18% height = 32% style = 'position:absolute;top:10%;right:25%'>
    <img id = 'img_b3' width = 18% height = 32% style = 'position:absolute;bottom:10%;left:25%'>
    <img id = 'img_b4' width = 18% height = 32% style = 'position:absolute;bottom:10%;right:25%'>
    <div id = 'cum' style = 'position:absolute;top:5%;right:5%;font-size:calc(18px + 6 * ((100vw - 320px) / 680))'></div>
  ","""","""","""","""","""","""","""","""","""","2021-05-06 16:29:14",149.167.213.210,"Mozilla/5.0 (Windows NT 10.0; Win64; x64) AppleWebKit/537.36 (KHTML, like Gecko) Chrome/90.0.4430.93 Safari/537.36",WebKit,Chrome,90.0.4430.93,Windows,10.0
99,1,null,null,html-keyboard-response,76,1400158,0.0-76.0,IwAR181yoHZ1hn2wXD0q3EOiJU1yeeqWircYkfWBqKLrr2zZEB6BCPkpxJYvs,"
    <img id = 'img_b1' width = 18% height = 32% style = 'position:absolute;top:10%;left:25%'>
    <img id = 'img_b2' width = 18% height = 32% style = 'position:absolute;top:10%;right:25%'>
    <img id = 'img_b3' width = 18% height = 32% style = 'position:absolute;bottom:10%;left:25%'>
    <img id = 'img_b4' width = 18% height = 32% style = 'position:absolute;bottom:10%;right:25%'>
    <div id = 'band_txt'></div>
    <div id = 'cum' style = 'position:absolute;top:5%;right:5%;font-size:calc(18px + 6 * ((100vw - 320px) / 680))'></div>
  ","""","""","""","""","""","""","""","""","""","2021-05-06 16:29:14",149.167.213.210,"Mozilla/5.0 (Windows NT 10.0; Win64; x64) AppleWebKit/537.36 (KHTML, like Gecko) Chrome/90.0.4430.93 Safari/537.36",WebKit,Chrome,90.0.4430.93,Windows,10.0
99,1,null,null,html-keyboard-response,77,1400915,0.0-77.0,IwAR181yoHZ1hn2wXD0q3EOiJU1yeeqWircYkfWBqKLrr2zZEB6BCPkpxJYvs,"<div style=""font-size:60px;"">+</div>","""","""","""","""","""","""","""","""","""","2021-05-06 16:29:14",149.167.213.210,"Mozilla/5.0 (Windows NT 10.0; Win64; x64) AppleWebKit/537.36 (KHTML, like Gecko) Chrome/90.0.4430.93 Safari/537.36",WebKit,Chrome,90.0.4430.93,Windows,10.0
99,1,453.0899999663234,p,html-keyboard-response,78,1401370,0.0-78.0,IwAR181yoHZ1hn2wXD0q3EOiJU1yeeqWircYkfWBqKLrr2zZEB6BCPkpxJYvs,"
    <img id = 'img_b1' width = 18% height = 32% style = 'position:absolute;top:10%;left:25%'>
    <img id = 'img_b2' width = 18% height = 32% style = 'position:absolute;top:10%;right:25%'>
    <img id = 'img_b3' width = 18% height = 32% style = 'position:absolute;bottom:10%;left:25%'>
    <img id = 'img_b4' width = 18% height = 32% style = 'position:absolute;bottom:10%;right:25%'>
    <div id = 'cum' style = 'position:absolute;top:5%;right:5%;font-size:calc(18px + 6 * ((100vw - 320px) / 680))'></div>
  ","""","""","""","""","""","""","""","""","""","2021-05-06 16:29:14",149.167.213.210,"Mozilla/5.0 (Windows NT 10.0; Win64; x64) AppleWebKit/537.36 (KHTML, like Gecko) Chrome/90.0.4430.93 Safari/537.36",WebKit,Chrome,90.0.4430.93,Windows,10.0
99,1,null,null,html-keyboard-response,79,1402886,0.0-79.0,IwAR181yoHZ1hn2wXD0q3EOiJU1yeeqWircYkfWBqKLrr2zZEB6BCPkpxJYvs,"
    <img id = 'img_b1' width = 18% height = 32% style = 'position:absolute;top:10%;left:25%'>
    <img id = 'img_b2' width = 18% height = 32% style = 'position:absolute;top:10%;right:25%'>
    <img id = 'img_b3' width = 18% height = 32% style = 'position:absolute;bottom:10%;left:25%'>
    <img id = 'img_b4' width = 18% height = 32% style = 'position:absolute;bottom:10%;right:25%'>
    <div id = 'band_txt'></div>
    <div id = 'cum' style = 'position:absolute;top:5%;right:5%;font-size:calc(18px + 6 * ((100vw - 320px) / 680))'></div>
  ","""","""","""","""","""","""","""","""","""","2021-05-06 16:29:14",149.167.213.210,"Mozilla/5.0 (Windows NT 10.0; Win64; x64) AppleWebKit/537.36 (KHTML, like Gecko) Chrome/90.0.4430.93 Safari/537.36",WebKit,Chrome,90.0.4430.93,Windows,10.0
99,1,null,null,html-keyboard-response,80,1404138,0.0-80.0,IwAR181yoHZ1hn2wXD0q3EOiJU1yeeqWircYkfWBqKLrr2zZEB6BCPkpxJYvs,"<div style=""font-size:60px;"">+</div>","""","""","""","""","""","""","""","""","""","2021-05-06 16:29:14",149.167.213.210,"Mozilla/5.0 (Windows NT 10.0; Win64; x64) AppleWebKit/537.36 (KHTML, like Gecko) Chrome/90.0.4430.93 Safari/537.36",WebKit,Chrome,90.0.4430.93,Windows,10.0
99,1,305.2099999040365,m,html-keyboard-response,81,1404444,0.0-81.0,IwAR181yoHZ1hn2wXD0q3EOiJU1yeeqWircYkfWBqKLrr2zZEB6BCPkpxJYvs,"
    <img id = 'img_b1' width = 18% height = 32% style = 'position:absolute;top:10%;left:25%'>
    <img id = 'img_b2' width = 18% height = 32% style = 'position:absolute;top:10%;right:25%'>
    <img id = 'img_b3' width = 18% height = 32% style = 'position:absolute;bottom:10%;left:25%'>
    <img id = 'img_b4' width = 18% height = 32% style = 'position:absolute;bottom:10%;right:25%'>
    <div id = 'cum' style = 'position:absolute;top:5%;right:5%;font-size:calc(18px + 6 * ((100vw - 320px) / 680))'></div>
  ","""","""","""","""","""","""","""","""","""","2021-05-06 16:29:14",149.167.213.210,"Mozilla/5.0 (Windows NT 10.0; Win64; x64) AppleWebKit/537.36 (KHTML, like Gecko) Chrome/90.0.4430.93 Safari/537.36",WebKit,Chrome,90.0.4430.93,Windows,10.0
99,1,null,null,html-keyboard-response,82,1405950,0.0-82.0,IwAR181yoHZ1hn2wXD0q3EOiJU1yeeqWircYkfWBqKLrr2zZEB6BCPkpxJYvs,"
    <img id = 'img_b1' width = 18% height = 32% style = 'position:absolute;top:10%;left:25%'>
    <img id = 'img_b2' width = 18% height = 32% style = 'position:absolute;top:10%;right:25%'>
    <img id = 'img_b3' width = 18% height = 32% style = 'position:absolute;bottom:10%;left:25%'>
    <img id = 'img_b4' width = 18% height = 32% style = 'position:absolute;bottom:10%;right:25%'>
    <div id = 'band_txt'></div>
    <div id = 'cum' style = 'position:absolute;top:5%;right:5%;font-size:calc(18px + 6 * ((100vw - 320px) / 680))'></div>
  ","""","""","""","""","""","""","""","""","""","2021-05-06 16:29:14",149.167.213.210,"Mozilla/5.0 (Windows NT 10.0; Win64; x64) AppleWebKit/537.36 (KHTML, like Gecko) Chrome/90.0.4430.93 Safari/537.36",WebKit,Chrome,90.0.4430.93,Windows,10.0
99,1,null,null,html-keyboard-response,83,1407222,0.0-83.0,IwAR181yoHZ1hn2wXD0q3EOiJU1yeeqWircYkfWBqKLrr2zZEB6BCPkpxJYvs,"<div style=""font-size:60px;"">+</div>","""","""","""","""","""","""","""","""","""","2021-05-06 16:29:14",149.167.213.210,"Mozilla/5.0 (Windows NT 10.0; Win64; x64) AppleWebKit/537.36 (KHTML, like Gecko) Chrome/90.0.4430.93 Safari/537.36",WebKit,Chrome,90.0.4430.93,Windows,10.0
99,1,307.425000006333,m,html-keyboard-response,84,1407531,0.0-84.0,IwAR181yoHZ1hn2wXD0q3EOiJU1yeeqWircYkfWBqKLrr2zZEB6BCPkpxJYvs,"
    <img id = 'img_b1' width = 18% height = 32% style = 'position:absolute;top:10%;left:25%'>
    <img id = 'img_b2' width = 18% height = 32% style = 'position:absolute;top:10%;right:25%'>
    <img id = 'img_b3' width = 18% height = 32% style = 'position:absolute;bottom:10%;left:25%'>
    <img id = 'img_b4' width = 18% height = 32% style = 'position:absolute;bottom:10%;right:25%'>
    <div id = 'cum' style = 'position:absolute;top:5%;right:5%;font-size:calc(18px + 6 * ((100vw - 320px) / 680))'></div>
  ","""","""","""","""","""","""","""","""","""","2021-05-06 16:29:14",149.167.213.210,"Mozilla/5.0 (Windows NT 10.0; Win64; x64) AppleWebKit/537.36 (KHTML, like Gecko) Chrome/90.0.4430.93 Safari/537.36",WebKit,Chrome,90.0.4430.93,Windows,10.0
99,1,null,null,html-keyboard-response,85,1409048,0.0-85.0,IwAR181yoHZ1hn2wXD0q3EOiJU1yeeqWircYkfWBqKLrr2zZEB6BCPkpxJYvs,"
    <img id = 'img_b1' width = 18% height = 32% style = 'position:absolute;top:10%;left:25%'>
    <img id = 'img_b2' width = 18% height = 32% style = 'position:absolute;top:10%;right:25%'>
    <img id = 'img_b3' width = 18% height = 32% style = 'position:absolute;bottom:10%;left:25%'>
    <img id = 'img_b4' width = 18% height = 32% style = 'position:absolute;bottom:10%;right:25%'>
    <div id = 'band_txt'></div>
    <div id = 'cum' style = 'position:absolute;top:5%;right:5%;font-size:calc(18px + 6 * ((100vw - 320px) / 680))'></div>
  ","""","""","""","""","""","""","""","""","""","2021-05-06 16:29:14",149.167.213.210,"Mozilla/5.0 (Windows NT 10.0; Win64; x64) AppleWebKit/537.36 (KHTML, like Gecko) Chrome/90.0.4430.93 Safari/537.36",WebKit,Chrome,90.0.4430.93,Windows,10.0
99,1,null,null,html-keyboard-response,86,1409806,0.0-86.0,IwAR181yoHZ1hn2wXD0q3EOiJU1yeeqWircYkfWBqKLrr2zZEB6BCPkpxJYvs,"<div style=""font-size:60px;"">+</div>","""","""","""","""","""","""","""","""","""","2021-05-06 16:29:14",149.167.213.210,"Mozilla/5.0 (Windows NT 10.0; Win64; x64) AppleWebKit/537.36 (KHTML, like Gecko) Chrome/90.0.4430.93 Safari/537.36",WebKit,Chrome,90.0.4430.93,Windows,10.0
99,1,387.08500005304813,p,html-keyboard-response,87,1410195,0.0-87.0,IwAR181yoHZ1hn2wXD0q3EOiJU1yeeqWircYkfWBqKLrr2zZEB6BCPkpxJYvs,"
    <img id = 'img_b1' width = 18% height = 32% style = 'position:absolute;top:10%;left:25%'>
    <img id = 'img_b2' width = 18% height = 32% style = 'position:absolute;top:10%;right:25%'>
    <img id = 'img_b3' width = 18% height = 32% style = 'position:absolute;bottom:10%;left:25%'>
    <img id = 'img_b4' width = 18% height = 32% style = 'position:absolute;bottom:10%;right:25%'>
    <div id = 'cum' style = 'position:absolute;top:5%;right:5%;font-size:calc(18px + 6 * ((100vw - 320px) / 680))'></div>
  ","""","""","""","""","""","""","""","""","""","2021-05-06 16:29:14",149.167.213.210,"Mozilla/5.0 (Windows NT 10.0; Win64; x64) AppleWebKit/537.36 (KHTML, like Gecko) Chrome/90.0.4430.93 Safari/537.36",WebKit,Chrome,90.0.4430.93,Windows,10.0
99,1,null,null,html-keyboard-response,88,1411710,0.0-88.0,IwAR181yoHZ1hn2wXD0q3EOiJU1yeeqWircYkfWBqKLrr2zZEB6BCPkpxJYvs,"
    <img id = 'img_b1' width = 18% height = 32% style = 'position:absolute;top:10%;left:25%'>
    <img id = 'img_b2' width = 18% height = 32% style = 'position:absolute;top:10%;right:25%'>
    <img id = 'img_b3' width = 18% height = 32% style = 'position:absolute;bottom:10%;left:25%'>
    <img id = 'img_b4' width = 18% height = 32% style = 'position:absolute;bottom:10%;right:25%'>
    <div id = 'band_txt'></div>
    <div id = 'cum' style = 'position:absolute;top:5%;right:5%;font-size:calc(18px + 6 * ((100vw - 320px) / 680))'></div>
  ","""","""","""","""","""","""","""","""","""","2021-05-06 16:29:14",149.167.213.210,"Mozilla/5.0 (Windows NT 10.0; Win64; x64) AppleWebKit/537.36 (KHTML, like Gecko) Chrome/90.0.4430.93 Safari/537.36",WebKit,Chrome,90.0.4430.93,Windows,10.0
99,1,null,null,html-keyboard-response,89,1413224,0.0-89.0,IwAR181yoHZ1hn2wXD0q3EOiJU1yeeqWircYkfWBqKLrr2zZEB6BCPkpxJYvs,"<div style=""font-size:60px;"">+</div>","""","""","""","""","""","""","""","""","""","2021-05-06 16:29:14",149.167.213.210,"Mozilla/5.0 (Windows NT 10.0; Win64; x64) AppleWebKit/537.36 (KHTML, like Gecko) Chrome/90.0.4430.93 Safari/537.36",WebKit,Chrome,90.0.4430.93,Windows,10.0
99,1,291.41000006347895,z,html-keyboard-response,90,1413517,0.0-90.0,IwAR181yoHZ1hn2wXD0q3EOiJU1yeeqWircYkfWBqKLrr2zZEB6BCPkpxJYvs,"
    <img id = 'img_b1' width = 18% height = 32% style = 'position:absolute;top:10%;left:25%'>
    <img id = 'img_b2' width = 18% height = 32% style = 'position:absolute;top:10%;right:25%'>
    <img id = 'img_b3' width = 18% height = 32% style = 'position:absolute;bottom:10%;left:25%'>
    <img id = 'img_b4' width = 18% height = 32% style = 'position:absolute;bottom:10%;right:25%'>
    <div id = 'cum' style = 'position:absolute;top:5%;right:5%;font-size:calc(18px + 6 * ((100vw - 320px) / 680))'></div>
  ","""","""","""","""","""","""","""","""","""","2021-05-06 16:29:14",149.167.213.210,"Mozilla/5.0 (Windows NT 10.0; Win64; x64) AppleWebKit/537.36 (KHTML, like Gecko) Chrome/90.0.4430.93 Safari/537.36",WebKit,Chrome,90.0.4430.93,Windows,10.0
99,1,null,null,html-keyboard-response,91,1415031,0.0-91.0,IwAR181yoHZ1hn2wXD0q3EOiJU1yeeqWircYkfWBqKLrr2zZEB6BCPkpxJYvs,"
    <img id = 'img_b1' width = 18% height = 32% style = 'position:absolute;top:10%;left:25%'>
    <img id = 'img_b2' width = 18% height = 32% style = 'position:absolute;top:10%;right:25%'>
    <img id = 'img_b3' width = 18% height = 32% style = 'position:absolute;bottom:10%;left:25%'>
    <img id = 'img_b4' width = 18% height = 32% style = 'position:absolute;bottom:10%;right:25%'>
    <div id = 'band_txt'></div>
    <div id = 'cum' style = 'position:absolute;top:5%;right:5%;font-size:calc(18px + 6 * ((100vw - 320px) / 680))'></div>
  ","""","""","""","""","""","""","""","""","""","2021-05-06 16:29:14",149.167.213.210,"Mozilla/5.0 (Windows NT 10.0; Win64; x64) AppleWebKit/537.36 (KHTML, like Gecko) Chrome/90.0.4430.93 Safari/537.36",WebKit,Chrome,90.0.4430.93,Windows,10.0
99,1,null,null,html-keyboard-response,92,1415792,0.0-92.0,IwAR181yoHZ1hn2wXD0q3EOiJU1yeeqWircYkfWBqKLrr2zZEB6BCPkpxJYvs,"<div style=""font-size:60px;"">+</div>","""","""","""","""","""","""","""","""","""","2021-05-06 16:29:14",149.167.213.210,"Mozilla/5.0 (Windows NT 10.0; Win64; x64) AppleWebKit/537.36 (KHTML, like Gecko) Chrome/90.0.4430.93 Safari/537.36",WebKit,Chrome,90.0.4430.93,Windows,10.0
99,1,764.214999973774,q,html-keyboard-response,93,1416557,0.0-93.0,IwAR181yoHZ1hn2wXD0q3EOiJU1yeeqWircYkfWBqKLrr2zZEB6BCPkpxJYvs,"
    <img id = 'img_b1' width = 18% height = 32% style = 'position:absolute;top:10%;left:25%'>
    <img id = 'img_b2' width = 18% height = 32% style = 'position:absolute;top:10%;right:25%'>
    <img id = 'img_b3' width = 18% height = 32% style = 'position:absolute;bottom:10%;left:25%'>
    <img id = 'img_b4' width = 18% height = 32% style = 'position:absolute;bottom:10%;right:25%'>
    <div id = 'cum' style = 'position:absolute;top:5%;right:5%;font-size:calc(18px + 6 * ((100vw - 320px) / 680))'></div>
  ","""","""","""","""","""","""","""","""","""","2021-05-06 16:29:14",149.167.213.210,"Mozilla/5.0 (Windows NT 10.0; Win64; x64) AppleWebKit/537.36 (KHTML, like Gecko) Chrome/90.0.4430.93 Safari/537.36",WebKit,Chrome,90.0.4430.93,Windows,10.0
99,1,null,null,html-keyboard-response,94,1418069,0.0-94.0,IwAR181yoHZ1hn2wXD0q3EOiJU1yeeqWircYkfWBqKLrr2zZEB6BCPkpxJYvs,"
    <img id = 'img_b1' width = 18% height = 32% style = 'position:absolute;top:10%;left:25%'>
    <img id = 'img_b2' width = 18% height = 32% style = 'position:absolute;top:10%;right:25%'>
    <img id = 'img_b3' width = 18% height = 32% style = 'position:absolute;bottom:10%;left:25%'>
    <img id = 'img_b4' width = 18% height = 32% style = 'position:absolute;bottom:10%;right:25%'>
    <div id = 'band_txt'></div>
    <div id = 'cum' style = 'position:absolute;top:5%;right:5%;font-size:calc(18px + 6 * ((100vw - 320px) / 680))'></div>
  ","""","""","""","""","""","""","""","""","""","2021-05-06 16:29:14",149.167.213.210,"Mozilla/5.0 (Windows NT 10.0; Win64; x64) AppleWebKit/537.36 (KHTML, like Gecko) Chrome/90.0.4430.93 Safari/537.36",WebKit,Chrome,90.0.4430.93,Windows,10.0
99,1,null,null,html-keyboard-response,95,1419831,0.0-95.0,IwAR181yoHZ1hn2wXD0q3EOiJU1yeeqWircYkfWBqKLrr2zZEB6BCPkpxJYvs,"<div style=""font-size:60px;"">+</div>","""","""","""","""","""","""","""","""","""","2021-05-06 16:29:14",149.167.213.210,"Mozilla/5.0 (Windows NT 10.0; Win64; x64) AppleWebKit/537.36 (KHTML, like Gecko) Chrome/90.0.4430.93 Safari/537.36",WebKit,Chrome,90.0.4430.93,Windows,10.0
99,1,10.860000038519502,m,html-keyboard-response,96,1419843,0.0-96.0,IwAR181yoHZ1hn2wXD0q3EOiJU1yeeqWircYkfWBqKLrr2zZEB6BCPkpxJYvs,"
    <img id = 'img_b1' width = 18% height = 32% style = 'position:absolute;top:10%;left:25%'>
    <img id = 'img_b2' width = 18% height = 32% style = 'position:absolute;top:10%;right:25%'>
    <img id = 'img_b3' width = 18% height = 32% style = 'position:absolute;bottom:10%;left:25%'>
    <img id = 'img_b4' width = 18% height = 32% style = 'position:absolute;bottom:10%;right:25%'>
    <div id = 'cum' style = 'position:absolute;top:5%;right:5%;font-size:calc(18px + 6 * ((100vw - 320px) / 680))'></div>
  ","""","""","""","""","""","""","""","""","""","2021-05-06 16:29:14",149.167.213.210,"Mozilla/5.0 (Windows NT 10.0; Win64; x64) AppleWebKit/537.36 (KHTML, like Gecko) Chrome/90.0.4430.93 Safari/537.36",WebKit,Chrome,90.0.4430.93,Windows,10.0
99,1,null,null,html-keyboard-response,97,1421352,0.0-97.0,IwAR181yoHZ1hn2wXD0q3EOiJU1yeeqWircYkfWBqKLrr2zZEB6BCPkpxJYvs,"
    <img id = 'img_b1' width = 18% height = 32% style = 'position:absolute;top:10%;left:25%'>
    <img id = 'img_b2' width = 18% height = 32% style = 'position:absolute;top:10%;right:25%'>
    <img id = 'img_b3' width = 18% height = 32% style = 'position:absolute;bottom:10%;left:25%'>
    <img id = 'img_b4' width = 18% height = 32% style = 'position:absolute;bottom:10%;right:25%'>
    <div id = 'band_txt'></div>
    <div id = 'cum' style = 'position:absolute;top:5%;right:5%;font-size:calc(18px + 6 * ((100vw - 320px) / 680))'></div>
  ","""","""","""","""","""","""","""","""","""","2021-05-06 16:29:14",149.167.213.210,"Mozilla/5.0 (Windows NT 10.0; Win64; x64) AppleWebKit/537.36 (KHTML, like Gecko) Chrome/90.0.4430.93 Safari/537.36",WebKit,Chrome,90.0.4430.93,Windows,10.0
99,1,null,null,html-keyboard-response,98,1422118,0.0-98.0,IwAR181yoHZ1hn2wXD0q3EOiJU1yeeqWircYkfWBqKLrr2zZEB6BCPkpxJYvs,"<div style=""font-size:60px;"">+</div>","""","""","""","""","""","""","""","""","""","2021-05-06 16:29:14",149.167.213.210,"Mozilla/5.0 (Windows NT 10.0; Win64; x64) AppleWebKit/537.36 (KHTML, like Gecko) Chrome/90.0.4430.93 Safari/537.36",WebKit,Chrome,90.0.4430.93,Windows,10.0
99,1,266.50999998673797,m,html-keyboard-response,99,1422386,0.0-99.0,IwAR181yoHZ1hn2wXD0q3EOiJU1yeeqWircYkfWBqKLrr2zZEB6BCPkpxJYvs,"
    <img id = 'img_b1' width = 18% height = 32% style = 'position:absolute;top:10%;left:25%'>
    <img id = 'img_b2' width = 18% height = 32% style = 'position:absolute;top:10%;right:25%'>
    <img id = 'img_b3' width = 18% height = 32% style = 'position:absolute;bottom:10%;left:25%'>
    <img id = 'img_b4' width = 18% height = 32% style = 'position:absolute;bottom:10%;right:25%'>
    <div id = 'cum' style = 'position:absolute;top:5%;right:5%;font-size:calc(18px + 6 * ((100vw - 320px) / 680))'></div>
  ","""","""","""","""","""","""","""","""","""","2021-05-06 16:29:14",149.167.213.210,"Mozilla/5.0 (Windows NT 10.0; Win64; x64) AppleWebKit/537.36 (KHTML, like Gecko) Chrome/90.0.4430.93 Safari/537.36",WebKit,Chrome,90.0.4430.93,Windows,10.0
99,1,null,null,html-keyboard-response,100,1423890,0.0-100.0,IwAR181yoHZ1hn2wXD0q3EOiJU1yeeqWircYkfWBqKLrr2zZEB6BCPkpxJYvs,"
    <img id = 'img_b1' width = 18% height = 32% style = 'position:absolute;top:10%;left:25%'>
    <img id = 'img_b2' width = 18% height = 32% style = 'position:absolute;top:10%;right:25%'>
    <img id = 'img_b3' width = 18% height = 32% style = 'position:absolute;bottom:10%;left:25%'>
    <img id = 'img_b4' width = 18% height = 32% style = 'position:absolute;bottom:10%;right:25%'>
    <div id = 'band_txt'></div>
    <div id = 'cum' style = 'position:absolute;top:5%;right:5%;font-size:calc(18px + 6 * ((100vw - 320px) / 680))'></div>
  ","""","""","""","""","""","""","""","""","""","2021-05-06 16:29:14",149.167.213.210,"Mozilla/5.0 (Windows NT 10.0; Win64; x64) AppleWebKit/537.36 (KHTML, like Gecko) Chrome/90.0.4430.93 Safari/537.36",WebKit,Chrome,90.0.4430.93,Windows,10.0
99,1,null,null,html-keyboard-response,101,1425158,0.0-101.0,IwAR181yoHZ1hn2wXD0q3EOiJU1yeeqWircYkfWBqKLrr2zZEB6BCPkpxJYvs,"<div style=""font-size:60px;"">+</div>","""","""","""","""","""","""","""","""","""","2021-05-06 16:29:14",149.167.213.210,"Mozilla/5.0 (Windows NT 10.0; Win64; x64) AppleWebKit/537.36 (KHTML, like Gecko) Chrome/90.0.4430.93 Safari/537.36",WebKit,Chrome,90.0.4430.93,Windows,10.0
99,1,891.1850000731647,m,html-keyboard-response,102,1426051,0.0-102.0,IwAR181yoHZ1hn2wXD0q3EOiJU1yeeqWircYkfWBqKLrr2zZEB6BCPkpxJYvs,"
    <img id = 'img_b1' width = 18% height = 32% style = 'position:absolute;top:10%;left:25%'>
    <img id = 'img_b2' width = 18% height = 32% style = 'position:absolute;top:10%;right:25%'>
    <img id = 'img_b3' width = 18% height = 32% style = 'position:absolute;bottom:10%;left:25%'>
    <img id = 'img_b4' width = 18% height = 32% style = 'position:absolute;bottom:10%;right:25%'>
    <div id = 'cum' style = 'position:absolute;top:5%;right:5%;font-size:calc(18px + 6 * ((100vw - 320px) / 680))'></div>
  ","""","""","""","""","""","""","""","""","""","2021-05-06 16:29:14",149.167.213.210,"Mozilla/5.0 (Windows NT 10.0; Win64; x64) AppleWebKit/537.36 (KHTML, like Gecko) Chrome/90.0.4430.93 Safari/537.36",WebKit,Chrome,90.0.4430.93,Windows,10.0
99,1,null,null,html-keyboard-response,103,1427555,0.0-103.0,IwAR181yoHZ1hn2wXD0q3EOiJU1yeeqWircYkfWBqKLrr2zZEB6BCPkpxJYvs,"
    <img id = 'img_b1' width = 18% height = 32% style = 'position:absolute;top:10%;left:25%'>
    <img id = 'img_b2' width = 18% height = 32% style = 'position:absolute;top:10%;right:25%'>
    <img id = 'img_b3' width = 18% height = 32% style = 'position:absolute;bottom:10%;left:25%'>
    <img id = 'img_b4' width = 18% height = 32% style = 'position:absolute;bottom:10%;right:25%'>
    <div id = 'band_txt'></div>
    <div id = 'cum' style = 'position:absolute;top:5%;right:5%;font-size:calc(18px + 6 * ((100vw - 320px) / 680))'></div>
  ","""","""","""","""","""","""","""","""","""","2021-05-06 16:29:14",149.167.213.210,"Mozilla/5.0 (Windows NT 10.0; Win64; x64) AppleWebKit/537.36 (KHTML, like Gecko) Chrome/90.0.4430.93 Safari/537.36",WebKit,Chrome,90.0.4430.93,Windows,10.0
99,1,null,null,html-keyboard-response,104,1429318,0.0-104.0,IwAR181yoHZ1hn2wXD0q3EOiJU1yeeqWircYkfWBqKLrr2zZEB6BCPkpxJYvs,"<div style=""font-size:60px;"">+</div>","""","""","""","""","""","""","""","""","""","2021-05-06 16:29:14",149.167.213.210,"Mozilla/5.0 (Windows NT 10.0; Win64; x64) AppleWebKit/537.36 (KHTML, like Gecko) Chrome/90.0.4430.93 Safari/537.36",WebKit,Chrome,90.0.4430.93,Windows,10.0
99,1,1075.3350001759827,m,html-keyboard-response,105,1430395,0.0-105.0,IwAR181yoHZ1hn2wXD0q3EOiJU1yeeqWircYkfWBqKLrr2zZEB6BCPkpxJYvs,"
    <img id = 'img_b1' width = 18% height = 32% style = 'position:absolute;top:10%;left:25%'>
    <img id = 'img_b2' width = 18% height = 32% style = 'position:absolute;top:10%;right:25%'>
    <img id = 'img_b3' width = 18% height = 32% style = 'position:absolute;bottom:10%;left:25%'>
    <img id = 'img_b4' width = 18% height = 32% style = 'position:absolute;bottom:10%;right:25%'>
    <div id = 'cum' style = 'position:absolute;top:5%;right:5%;font-size:calc(18px + 6 * ((100vw - 320px) / 680))'></div>
  ","""","""","""","""","""","""","""","""","""","2021-05-06 16:29:14",149.167.213.210,"Mozilla/5.0 (Windows NT 10.0; Win64; x64) AppleWebKit/537.36 (KHTML, like Gecko) Chrome/90.0.4430.93 Safari/537.36",WebKit,Chrome,90.0.4430.93,Windows,10.0
99,1,null,null,html-keyboard-response,106,1431906,0.0-106.0,IwAR181yoHZ1hn2wXD0q3EOiJU1yeeqWircYkfWBqKLrr2zZEB6BCPkpxJYvs,"
    <img id = 'img_b1' width = 18% height = 32% style = 'position:absolute;top:10%;left:25%'>
    <img id = 'img_b2' width = 18% height = 32% style = 'position:absolute;top:10%;right:25%'>
    <img id = 'img_b3' width = 18% height = 32% style = 'position:absolute;bottom:10%;left:25%'>
    <img id = 'img_b4' width = 18% height = 32% style = 'position:absolute;bottom:10%;right:25%'>
    <div id = 'band_txt'></div>
    <div id = 'cum' style = 'position:absolute;top:5%;right:5%;font-size:calc(18px + 6 * ((100vw - 320px) / 680))'></div>
  ","""","""","""","""","""","""","""","""","""","2021-05-06 16:29:14",149.167.213.210,"Mozilla/5.0 (Windows NT 10.0; Win64; x64) AppleWebKit/537.36 (KHTML, like Gecko) Chrome/90.0.4430.93 Safari/537.36",WebKit,Chrome,90.0.4430.93,Windows,10.0
99,1,null,null,html-keyboard-response,107,1433409,0.0-107.0,IwAR181yoHZ1hn2wXD0q3EOiJU1yeeqWircYkfWBqKLrr2zZEB6BCPkpxJYvs,"<div style=""font-size:60px;"">+</div>","""","""","""","""","""","""","""","""","""","2021-05-06 16:29:14",149.167.213.210,"Mozilla/5.0 (Windows NT 10.0; Win64; x64) AppleWebKit/537.36 (KHTML, like Gecko) Chrome/90.0.4430.93 Safari/537.36",WebKit,Chrome,90.0.4430.93,Windows,10.0
99,1,2703.700000187382,m,html-keyboard-response,108,1436114,0.0-108.0,IwAR181yoHZ1hn2wXD0q3EOiJU1yeeqWircYkfWBqKLrr2zZEB6BCPkpxJYvs,"
    <img id = 'img_b1' width = 18% height = 32% style = 'position:absolute;top:10%;left:25%'>
    <img id = 'img_b2' width = 18% height = 32% style = 'position:absolute;top:10%;right:25%'>
    <img id = 'img_b3' width = 18% height = 32% style = 'position:absolute;bottom:10%;left:25%'>
    <img id = 'img_b4' width = 18% height = 32% style = 'position:absolute;bottom:10%;right:25%'>
    <div id = 'cum' style = 'position:absolute;top:5%;right:5%;font-size:calc(18px + 6 * ((100vw - 320px) / 680))'></div>
  ","""","""","""","""","""","""","""","""","""","2021-05-06 16:29:14",149.167.213.210,"Mozilla/5.0 (Windows NT 10.0; Win64; x64) AppleWebKit/537.36 (KHTML, like Gecko) Chrome/90.0.4430.93 Safari/537.36",WebKit,Chrome,90.0.4430.93,Windows,10.0
99,1,null,null,html-keyboard-response,109,1437636,0.0-109.0,IwAR181yoHZ1hn2wXD0q3EOiJU1yeeqWircYkfWBqKLrr2zZEB6BCPkpxJYvs,"
    <img id = 'img_b1' width = 18% height = 32% style = 'position:absolute;top:10%;left:25%'>
    <img id = 'img_b2' width = 18% height = 32% style = 'position:absolute;top:10%;right:25%'>
    <img id = 'img_b3' width = 18% height = 32% style = 'position:absolute;bottom:10%;left:25%'>
    <img id = 'img_b4' width = 18% height = 32% style = 'position:absolute;bottom:10%;right:25%'>
    <div id = 'band_txt'></div>
    <div id = 'cum' style = 'position:absolute;top:5%;right:5%;font-size:calc(18px + 6 * ((100vw - 320px) / 680))'></div>
  ","""","""","""","""","""","""","""","""","""","2021-05-06 16:29:14",149.167.213.210,"Mozilla/5.0 (Windows NT 10.0; Win64; x64) AppleWebKit/537.36 (KHTML, like Gecko) Chrome/90.0.4430.93 Safari/537.36",WebKit,Chrome,90.0.4430.93,Windows,10.0
99,1,null,null,html-keyboard-response,110,1439152,0.0-110.0,IwAR181yoHZ1hn2wXD0q3EOiJU1yeeqWircYkfWBqKLrr2zZEB6BCPkpxJYvs,"<div style=""font-size:60px;"">+</div>","""","""","""","""","""","""","""","""","""","2021-05-06 16:29:14",149.167.213.210,"Mozilla/5.0 (Windows NT 10.0; Win64; x64) AppleWebKit/537.36 (KHTML, like Gecko) Chrome/90.0.4430.93 Safari/537.36",WebKit,Chrome,90.0.4430.93,Windows,10.0
99,1,260.6999999843538,m,html-keyboard-response,111,1439415,0.0-111.0,IwAR181yoHZ1hn2wXD0q3EOiJU1yeeqWircYkfWBqKLrr2zZEB6BCPkpxJYvs,"
    <img id = 'img_b1' width = 18% height = 32% style = 'position:absolute;top:10%;left:25%'>
    <img id = 'img_b2' width = 18% height = 32% style = 'position:absolute;top:10%;right:25%'>
    <img id = 'img_b3' width = 18% height = 32% style = 'position:absolute;bottom:10%;left:25%'>
    <img id = 'img_b4' width = 18% height = 32% style = 'position:absolute;bottom:10%;right:25%'>
    <div id = 'cum' style = 'position:absolute;top:5%;right:5%;font-size:calc(18px + 6 * ((100vw - 320px) / 680))'></div>
  ","""","""","""","""","""","""","""","""","""","2021-05-06 16:29:14",149.167.213.210,"Mozilla/5.0 (Windows NT 10.0; Win64; x64) AppleWebKit/537.36 (KHTML, like Gecko) Chrome/90.0.4430.93 Safari/537.36",WebKit,Chrome,90.0.4430.93,Windows,10.0
99,1,null,null,html-keyboard-response,112,1440924,0.0-112.0,IwAR181yoHZ1hn2wXD0q3EOiJU1yeeqWircYkfWBqKLrr2zZEB6BCPkpxJYvs,"
    <img id = 'img_b1' width = 18% height = 32% style = 'position:absolute;top:10%;left:25%'>
    <img id = 'img_b2' width = 18% height = 32% style = 'position:absolute;top:10%;right:25%'>
    <img id = 'img_b3' width = 18% height = 32% style = 'position:absolute;bottom:10%;left:25%'>
    <img id = 'img_b4' width = 18% height = 32% style = 'position:absolute;bottom:10%;right:25%'>
    <div id = 'band_txt'></div>
    <div id = 'cum' style = 'position:absolute;top:5%;right:5%;font-size:calc(18px + 6 * ((100vw - 320px) / 680))'></div>
  ","""","""","""","""","""","""","""","""","""","2021-05-06 16:29:14",149.167.213.210,"Mozilla/5.0 (Windows NT 10.0; Win64; x64) AppleWebKit/537.36 (KHTML, like Gecko) Chrome/90.0.4430.93 Safari/537.36",WebKit,Chrome,90.0.4430.93,Windows,10.0
99,1,null,null,html-keyboard-response,113,1442191,0.0-113.0,IwAR181yoHZ1hn2wXD0q3EOiJU1yeeqWircYkfWBqKLrr2zZEB6BCPkpxJYvs,"<div style=""font-size:60px;"">+</div>","""","""","""","""","""","""","""","""","""","2021-05-06 16:29:14",149.167.213.210,"Mozilla/5.0 (Windows NT 10.0; Win64; x64) AppleWebKit/537.36 (KHTML, like Gecko) Chrome/90.0.4430.93 Safari/537.36",WebKit,Chrome,90.0.4430.93,Windows,10.0
99,1,855.1250000018626,p,html-keyboard-response,114,1443055,0.0-114.0,IwAR181yoHZ1hn2wXD0q3EOiJU1yeeqWircYkfWBqKLrr2zZEB6BCPkpxJYvs,"
    <img id = 'img_b1' width = 18% height = 32% style = 'position:absolute;top:10%;left:25%'>
    <img id = 'img_b2' width = 18% height = 32% style = 'position:absolute;top:10%;right:25%'>
    <img id = 'img_b3' width = 18% height = 32% style = 'position:absolute;bottom:10%;left:25%'>
    <img id = 'img_b4' width = 18% height = 32% style = 'position:absolute;bottom:10%;right:25%'>
    <div id = 'cum' style = 'position:absolute;top:5%;right:5%;font-size:calc(18px + 6 * ((100vw - 320px) / 680))'></div>
  ","""","""","""","""","""","""","""","""","""","2021-05-06 16:29:14",149.167.213.210,"Mozilla/5.0 (Windows NT 10.0; Win64; x64) AppleWebKit/537.36 (KHTML, like Gecko) Chrome/90.0.4430.93 Safari/537.36",WebKit,Chrome,90.0.4430.93,Windows,10.0
99,1,null,null,html-keyboard-response,115,1444565,0.0-115.0,IwAR181yoHZ1hn2wXD0q3EOiJU1yeeqWircYkfWBqKLrr2zZEB6BCPkpxJYvs,"
    <img id = 'img_b1' width = 18% height = 32% style = 'position:absolute;top:10%;left:25%'>
    <img id = 'img_b2' width = 18% height = 32% style = 'position:absolute;top:10%;right:25%'>
    <img id = 'img_b3' width = 18% height = 32% style = 'position:absolute;bottom:10%;left:25%'>
    <img id = 'img_b4' width = 18% height = 32% style = 'position:absolute;bottom:10%;right:25%'>
    <div id = 'band_txt'></div>
    <div id = 'cum' style = 'position:absolute;top:5%;right:5%;font-size:calc(18px + 6 * ((100vw - 320px) / 680))'></div>
  ","""","""","""","""","""","""","""","""","""","2021-05-06 16:29:14",149.167.213.210,"Mozilla/5.0 (Windows NT 10.0; Win64; x64) AppleWebKit/537.36 (KHTML, like Gecko) Chrome/90.0.4430.93 Safari/537.36",WebKit,Chrome,90.0.4430.93,Windows,10.0
99,1,null,null,html-keyboard-response,116,1445588,0.0-116.0,IwAR181yoHZ1hn2wXD0q3EOiJU1yeeqWircYkfWBqKLrr2zZEB6BCPkpxJYvs,"<div style=""font-size:60px;"">+</div>","""","""","""","""","""","""","""","""","""","2021-05-06 16:29:14",149.167.213.210,"Mozilla/5.0 (Windows NT 10.0; Win64; x64) AppleWebKit/537.36 (KHTML, like Gecko) Chrome/90.0.4430.93 Safari/537.36",WebKit,Chrome,90.0.4430.93,Windows,10.0
99,1,1180.530000012368,q,html-keyboard-response,117,1446770,0.0-117.0,IwAR181yoHZ1hn2wXD0q3EOiJU1yeeqWircYkfWBqKLrr2zZEB6BCPkpxJYvs,"
    <img id = 'img_b1' width = 18% height = 32% style = 'position:absolute;top:10%;left:25%'>
    <img id = 'img_b2' width = 18% height = 32% style = 'position:absolute;top:10%;right:25%'>
    <img id = 'img_b3' width = 18% height = 32% style = 'position:absolute;bottom:10%;left:25%'>
    <img id = 'img_b4' width = 18% height = 32% style = 'position:absolute;bottom:10%;right:25%'>
    <div id = 'cum' style = 'position:absolute;top:5%;right:5%;font-size:calc(18px + 6 * ((100vw - 320px) / 680))'></div>
  ","""","""","""","""","""","""","""","""","""","2021-05-06 16:29:14",149.167.213.210,"Mozilla/5.0 (Windows NT 10.0; Win64; x64) AppleWebKit/537.36 (KHTML, like Gecko) Chrome/90.0.4430.93 Safari/537.36",WebKit,Chrome,90.0.4430.93,Windows,10.0
99,1,null,null,html-keyboard-response,118,1448277,0.0-118.0,IwAR181yoHZ1hn2wXD0q3EOiJU1yeeqWircYkfWBqKLrr2zZEB6BCPkpxJYvs,"
    <img id = 'img_b1' width = 18% height = 32% style = 'position:absolute;top:10%;left:25%'>
    <img id = 'img_b2' width = 18% height = 32% style = 'position:absolute;top:10%;right:25%'>
    <img id = 'img_b3' width = 18% height = 32% style = 'position:absolute;bottom:10%;left:25%'>
    <img id = 'img_b4' width = 18% height = 32% style = 'position:absolute;bottom:10%;right:25%'>
    <div id = 'band_txt'></div>
    <div id = 'cum' style = 'position:absolute;top:5%;right:5%;font-size:calc(18px + 6 * ((100vw - 320px) / 680))'></div>
  ","""","""","""","""","""","""","""","""","""","2021-05-06 16:29:14",149.167.213.210,"Mozilla/5.0 (Windows NT 10.0; Win64; x64) AppleWebKit/537.36 (KHTML, like Gecko) Chrome/90.0.4430.93 Safari/537.36",WebKit,Chrome,90.0.4430.93,Windows,10.0
99,1,null,null,html-keyboard-response,119,1449536,0.0-119.0,IwAR181yoHZ1hn2wXD0q3EOiJU1yeeqWircYkfWBqKLrr2zZEB6BCPkpxJYvs,"<div style=""font-size:60px;"">+</div>","""","""","""","""","""","""","""","""","""","2021-05-06 16:29:14",149.167.213.210,"Mozilla/5.0 (Windows NT 10.0; Win64; x64) AppleWebKit/537.36 (KHTML, like Gecko) Chrome/90.0.4430.93 Safari/537.36",WebKit,Chrome,90.0.4430.93,Windows,10.0
99,1,27.814999921247363,z,html-keyboard-response,120,1449571,0.0-120.0,IwAR181yoHZ1hn2wXD0q3EOiJU1yeeqWircYkfWBqKLrr2zZEB6BCPkpxJYvs,"
    <img id = 'img_b1' width = 18% height = 32% style = 'position:absolute;top:10%;left:25%'>
    <img id = 'img_b2' width = 18% height = 32% style = 'position:absolute;top:10%;right:25%'>
    <img id = 'img_b3' width = 18% height = 32% style = 'position:absolute;bottom:10%;left:25%'>
    <img id = 'img_b4' width = 18% height = 32% style = 'position:absolute;bottom:10%;right:25%'>
    <div id = 'cum' style = 'position:absolute;top:5%;right:5%;font-size:calc(18px + 6 * ((100vw - 320px) / 680))'></div>
  ","""","""","""","""","""","""","""","""","""","2021-05-06 16:29:14",149.167.213.210,"Mozilla/5.0 (Windows NT 10.0; Win64; x64) AppleWebKit/537.36 (KHTML, like Gecko) Chrome/90.0.4430.93 Safari/537.36",WebKit,Chrome,90.0.4430.93,Windows,10.0
99,1,null,null,html-keyboard-response,121,1451085,0.0-121.0,IwAR181yoHZ1hn2wXD0q3EOiJU1yeeqWircYkfWBqKLrr2zZEB6BCPkpxJYvs,"
    <img id = 'img_b1' width = 18% height = 32% style = 'position:absolute;top:10%;left:25%'>
    <img id = 'img_b2' width = 18% height = 32% style = 'position:absolute;top:10%;right:25%'>
    <img id = 'img_b3' width = 18% height = 32% style = 'position:absolute;bottom:10%;left:25%'>
    <img id = 'img_b4' width = 18% height = 32% style = 'position:absolute;bottom:10%;right:25%'>
    <div id = 'band_txt'></div>
    <div id = 'cum' style = 'position:absolute;top:5%;right:5%;font-size:calc(18px + 6 * ((100vw - 320px) / 680))'></div>
  ","""","""","""","""","""","""","""","""","""","2021-05-06 16:29:14",149.167.213.210,"Mozilla/5.0 (Windows NT 10.0; Win64; x64) AppleWebKit/537.36 (KHTML, like Gecko) Chrome/90.0.4430.93 Safari/537.36",WebKit,Chrome,90.0.4430.93,Windows,10.0
99,1,null,null,html-keyboard-response,122,1451847,0.0-122.0,IwAR181yoHZ1hn2wXD0q3EOiJU1yeeqWircYkfWBqKLrr2zZEB6BCPkpxJYvs,"<div style=""font-size:60px;"">+</div>","""","""","""","""","""","""","""","""","""","2021-05-06 16:29:14",149.167.213.210,"Mozilla/5.0 (Windows NT 10.0; Win64; x64) AppleWebKit/537.36 (KHTML, like Gecko) Chrome/90.0.4430.93 Safari/537.36",WebKit,Chrome,90.0.4430.93,Windows,10.0
99,1,257.63999996706843,m,html-keyboard-response,123,1452107,0.0-123.0,IwAR181yoHZ1hn2wXD0q3EOiJU1yeeqWircYkfWBqKLrr2zZEB6BCPkpxJYvs,"
    <img id = 'img_b1' width = 18% height = 32% style = 'position:absolute;top:10%;left:25%'>
    <img id = 'img_b2' width = 18% height = 32% style = 'position:absolute;top:10%;right:25%'>
    <img id = 'img_b3' width = 18% height = 32% style = 'position:absolute;bottom:10%;left:25%'>
    <img id = 'img_b4' width = 18% height = 32% style = 'position:absolute;bottom:10%;right:25%'>
    <div id = 'cum' style = 'position:absolute;top:5%;right:5%;font-size:calc(18px + 6 * ((100vw - 320px) / 680))'></div>
  ","""","""","""","""","""","""","""","""","""","2021-05-06 16:29:14",149.167.213.210,"Mozilla/5.0 (Windows NT 10.0; Win64; x64) AppleWebKit/537.36 (KHTML, like Gecko) Chrome/90.0.4430.93 Safari/537.36",WebKit,Chrome,90.0.4430.93,Windows,10.0
99,1,null,null,html-keyboard-response,124,1453620,0.0-124.0,IwAR181yoHZ1hn2wXD0q3EOiJU1yeeqWircYkfWBqKLrr2zZEB6BCPkpxJYvs,"
    <img id = 'img_b1' width = 18% height = 32% style = 'position:absolute;top:10%;left:25%'>
    <img id = 'img_b2' width = 18% height = 32% style = 'position:absolute;top:10%;right:25%'>
    <img id = 'img_b3' width = 18% height = 32% style = 'position:absolute;bottom:10%;left:25%'>
    <img id = 'img_b4' width = 18% height = 32% style = 'position:absolute;bottom:10%;right:25%'>
    <div id = 'band_txt'></div>
    <div id = 'cum' style = 'position:absolute;top:5%;right:5%;font-size:calc(18px + 6 * ((100vw - 320px) / 680))'></div>
  ","""","""","""","""","""","""","""","""","""","2021-05-06 16:29:14",149.167.213.210,"Mozilla/5.0 (Windows NT 10.0; Win64; x64) AppleWebKit/537.36 (KHTML, like Gecko) Chrome/90.0.4430.93 Safari/537.36",WebKit,Chrome,90.0.4430.93,Windows,10.0
99,1,null,null,html-keyboard-response,125,1454375,0.0-125.0,IwAR181yoHZ1hn2wXD0q3EOiJU1yeeqWircYkfWBqKLrr2zZEB6BCPkpxJYvs,"<div style=""font-size:60px;"">+</div>","""","""","""","""","""","""","""","""","""","2021-05-06 16:29:14",149.167.213.210,"Mozilla/5.0 (Windows NT 10.0; Win64; x64) AppleWebKit/537.36 (KHTML, like Gecko) Chrome/90.0.4430.93 Safari/537.36",WebKit,Chrome,90.0.4430.93,Windows,10.0
99,1,220.13500006869435,m,html-keyboard-response,126,1454597,0.0-126.0,IwAR181yoHZ1hn2wXD0q3EOiJU1yeeqWircYkfWBqKLrr2zZEB6BCPkpxJYvs,"
    <img id = 'img_b1' width = 18% height = 32% style = 'position:absolute;top:10%;left:25%'>
    <img id = 'img_b2' width = 18% height = 32% style = 'position:absolute;top:10%;right:25%'>
    <img id = 'img_b3' width = 18% height = 32% style = 'position:absolute;bottom:10%;left:25%'>
    <img id = 'img_b4' width = 18% height = 32% style = 'position:absolute;bottom:10%;right:25%'>
    <div id = 'cum' style = 'position:absolute;top:5%;right:5%;font-size:calc(18px + 6 * ((100vw - 320px) / 680))'></div>
  ","""","""","""","""","""","""","""","""","""","2021-05-06 16:29:14",149.167.213.210,"Mozilla/5.0 (Windows NT 10.0; Win64; x64) AppleWebKit/537.36 (KHTML, like Gecko) Chrome/90.0.4430.93 Safari/537.36",WebKit,Chrome,90.0.4430.93,Windows,10.0
99,1,null,null,html-keyboard-response,127,1456107,0.0-127.0,IwAR181yoHZ1hn2wXD0q3EOiJU1yeeqWircYkfWBqKLrr2zZEB6BCPkpxJYvs,"
    <img id = 'img_b1' width = 18% height = 32% style = 'position:absolute;top:10%;left:25%'>
    <img id = 'img_b2' width = 18% height = 32% style = 'position:absolute;top:10%;right:25%'>
    <img id = 'img_b3' width = 18% height = 32% style = 'position:absolute;bottom:10%;left:25%'>
    <img id = 'img_b4' width = 18% height = 32% style = 'position:absolute;bottom:10%;right:25%'>
    <div id = 'band_txt'></div>
    <div id = 'cum' style = 'position:absolute;top:5%;right:5%;font-size:calc(18px + 6 * ((100vw - 320px) / 680))'></div>
  ","""","""","""","""","""","""","""","""","""","2021-05-06 16:29:14",149.167.213.210,"Mozilla/5.0 (Windows NT 10.0; Win64; x64) AppleWebKit/537.36 (KHTML, like Gecko) Chrome/90.0.4430.93 Safari/537.36",WebKit,Chrome,90.0.4430.93,Windows,10.0
99,1,null,null,html-keyboard-response,128,1457892,0.0-128.0,IwAR181yoHZ1hn2wXD0q3EOiJU1yeeqWircYkfWBqKLrr2zZEB6BCPkpxJYvs,"<div style=""font-size:60px;"">+</div>","""","""","""","""","""","""","""","""","""","2021-05-06 16:29:14",149.167.213.210,"Mozilla/5.0 (Windows NT 10.0; Win64; x64) AppleWebKit/537.36 (KHTML, like Gecko) Chrome/90.0.4430.93 Safari/537.36",WebKit,Chrome,90.0.4430.93,Windows,10.0
99,1,18090.89000010863,m,html-keyboard-response,129,1475984,0.0-129.0,IwAR181yoHZ1hn2wXD0q3EOiJU1yeeqWircYkfWBqKLrr2zZEB6BCPkpxJYvs,"
    <img id = 'img_b1' width = 18% height = 32% style = 'position:absolute;top:10%;left:25%'>
    <img id = 'img_b2' width = 18% height = 32% style = 'position:absolute;top:10%;right:25%'>
    <img id = 'img_b3' width = 18% height = 32% style = 'position:absolute;bottom:10%;left:25%'>
    <img id = 'img_b4' width = 18% height = 32% style = 'position:absolute;bottom:10%;right:25%'>
    <div id = 'cum' style = 'position:absolute;top:5%;right:5%;font-size:calc(18px + 6 * ((100vw - 320px) / 680))'></div>
  ","""","""","""","""","""","""","""","""","""","2021-05-06 16:29:14",149.167.213.210,"Mozilla/5.0 (Windows NT 10.0; Win64; x64) AppleWebKit/537.36 (KHTML, like Gecko) Chrome/90.0.4430.93 Safari/537.36",WebKit,Chrome,90.0.4430.93,Windows,10.0
99,1,null,null,html-keyboard-response,130,1477501,0.0-130.0,IwAR181yoHZ1hn2wXD0q3EOiJU1yeeqWircYkfWBqKLrr2zZEB6BCPkpxJYvs,"
    <img id = 'img_b1' width = 18% height = 32% style = 'position:absolute;top:10%;left:25%'>
    <img id = 'img_b2' width = 18% height = 32% style = 'position:absolute;top:10%;right:25%'>
    <img id = 'img_b3' width = 18% height = 32% style = 'position:absolute;bottom:10%;left:25%'>
    <img id = 'img_b4' width = 18% height = 32% style = 'position:absolute;bottom:10%;right:25%'>
    <div id = 'band_txt'></div>
    <div id = 'cum' style = 'position:absolute;top:5%;right:5%;font-size:calc(18px + 6 * ((100vw - 320px) / 680))'></div>
  ","""","""","""","""","""","""","""","""","""","2021-05-06 16:29:14",149.167.213.210,"Mozilla/5.0 (Windows NT 10.0; Win64; x64) AppleWebKit/537.36 (KHTML, like Gecko) Chrome/90.0.4430.93 Safari/537.36",WebKit,Chrome,90.0.4430.93,Windows,10.0
99,1,null,null,html-keyboard-response,131,1479262,0.0-131.0,IwAR181yoHZ1hn2wXD0q3EOiJU1yeeqWircYkfWBqKLrr2zZEB6BCPkpxJYvs,"<div style=""font-size:60px;"">+</div>","""","""","""","""","""","""","""","""","""","2021-05-06 16:29:14",149.167.213.210,"Mozilla/5.0 (Windows NT 10.0; Win64; x64) AppleWebKit/537.36 (KHTML, like Gecko) Chrome/90.0.4430.93 Safari/537.36",WebKit,Chrome,90.0.4430.93,Windows,10.0
99,1,760.1099999155849,m,html-keyboard-response,132,1480023,0.0-132.0,IwAR181yoHZ1hn2wXD0q3EOiJU1yeeqWircYkfWBqKLrr2zZEB6BCPkpxJYvs,"
    <img id = 'img_b1' width = 18% height = 32% style = 'position:absolute;top:10%;left:25%'>
    <img id = 'img_b2' width = 18% height = 32% style = 'position:absolute;top:10%;right:25%'>
    <img id = 'img_b3' width = 18% height = 32% style = 'position:absolute;bottom:10%;left:25%'>
    <img id = 'img_b4' width = 18% height = 32% style = 'position:absolute;bottom:10%;right:25%'>
    <div id = 'cum' style = 'position:absolute;top:5%;right:5%;font-size:calc(18px + 6 * ((100vw - 320px) / 680))'></div>
  ","""","""","""","""","""","""","""","""","""","2021-05-06 16:29:14",149.167.213.210,"Mozilla/5.0 (Windows NT 10.0; Win64; x64) AppleWebKit/537.36 (KHTML, like Gecko) Chrome/90.0.4430.93 Safari/537.36",WebKit,Chrome,90.0.4430.93,Windows,10.0
99,1,null,null,html-keyboard-response,133,1481532,0.0-133.0,IwAR181yoHZ1hn2wXD0q3EOiJU1yeeqWircYkfWBqKLrr2zZEB6BCPkpxJYvs,"
    <img id = 'img_b1' width = 18% height = 32% style = 'position:absolute;top:10%;left:25%'>
    <img id = 'img_b2' width = 18% height = 32% style = 'position:absolute;top:10%;right:25%'>
    <img id = 'img_b3' width = 18% height = 32% style = 'position:absolute;bottom:10%;left:25%'>
    <img id = 'img_b4' width = 18% height = 32% style = 'position:absolute;bottom:10%;right:25%'>
    <div id = 'band_txt'></div>
    <div id = 'cum' style = 'position:absolute;top:5%;right:5%;font-size:calc(18px + 6 * ((100vw - 320px) / 680))'></div>
  ","""","""","""","""","""","""","""","""","""","2021-05-06 16:29:14",149.167.213.210,"Mozilla/5.0 (Windows NT 10.0; Win64; x64) AppleWebKit/537.36 (KHTML, like Gecko) Chrome/90.0.4430.93 Safari/537.36",WebKit,Chrome,90.0.4430.93,Windows,10.0
99,1,null,null,html-keyboard-response,134,1483077,0.0-134.0,IwAR181yoHZ1hn2wXD0q3EOiJU1yeeqWircYkfWBqKLrr2zZEB6BCPkpxJYvs,"<div style=""font-size:60px;"">+</div>","""","""","""","""","""","""","""","""","""","2021-05-06 16:29:14",149.167.213.210,"Mozilla/5.0 (Windows NT 10.0; Win64; x64) AppleWebKit/537.36 (KHTML, like Gecko) Chrome/90.0.4430.93 Safari/537.36",WebKit,Chrome,90.0.4430.93,Windows,10.0
99,1,5112.0649999938905,m,html-keyboard-response,135,1488196,0.0-135.0,IwAR181yoHZ1hn2wXD0q3EOiJU1yeeqWircYkfWBqKLrr2zZEB6BCPkpxJYvs,"
    <img id = 'img_b1' width = 18% height = 32% style = 'position:absolute;top:10%;left:25%'>
    <img id = 'img_b2' width = 18% height = 32% style = 'position:absolute;top:10%;right:25%'>
    <img id = 'img_b3' width = 18% height = 32% style = 'position:absolute;bottom:10%;left:25%'>
    <img id = 'img_b4' width = 18% height = 32% style = 'position:absolute;bottom:10%;right:25%'>
    <div id = 'cum' style = 'position:absolute;top:5%;right:5%;font-size:calc(18px + 6 * ((100vw - 320px) / 680))'></div>
  ","""","""","""","""","""","""","""","""","""","2021-05-06 16:29:14",149.167.213.210,"Mozilla/5.0 (Windows NT 10.0; Win64; x64) AppleWebKit/537.36 (KHTML, like Gecko) Chrome/90.0.4430.93 Safari/537.36",WebKit,Chrome,90.0.4430.93,Windows,10.0
99,1,null,null,html-keyboard-response,136,1489715,0.0-136.0,IwAR181yoHZ1hn2wXD0q3EOiJU1yeeqWircYkfWBqKLrr2zZEB6BCPkpxJYvs,"
    <img id = 'img_b1' width = 18% height = 32% style = 'position:absolute;top:10%;left:25%'>
    <img id = 'img_b2' width = 18% height = 32% style = 'position:absolute;top:10%;right:25%'>
    <img id = 'img_b3' width = 18% height = 32% style = 'position:absolute;bottom:10%;left:25%'>
    <img id = 'img_b4' width = 18% height = 32% style = 'position:absolute;bottom:10%;right:25%'>
    <div id = 'band_txt'></div>
    <div id = 'cum' style = 'position:absolute;top:5%;right:5%;font-size:calc(18px + 6 * ((100vw - 320px) / 680))'></div>
